sep=,
PacketCounter,SampleTimeFine,Euler_X,Euler_Y,Euler_Z,Acc_X,Acc_Y,Acc_Z,Gyr_X,Gyr_Y,Gyr_Z,
0, 1390618660, 91.7540283203125, -37.82793426513672, -52.78173828125, 0, 0, 0, 0, 0, 0, 
1, 1390626993, 91.75688171386719, -37.837825775146484, -52.77645492553711, 6.049682140350342, 7.764161586761475, -0.24363334476947784, 0.7324774265289307, 0.5374506711959839, 1.1690462827682495, 
2, 1390635326, 91.76446533203125, -37.86863708496094, -52.777130126953125, 6.034560203552246, 7.770441055297852, -0.2513294517993927, 0.9553470015525818, 0.3651949465274811, 1.1248875856399536, 
3, 1390643659, 91.77288055419922, -37.87923812866211, -52.77497863769531, 6.04451322555542, 7.760997295379639, -0.2787465751171112, 1.1666897535324097, 0.2421441674232483, 1.2643569707870483, 
4, 1390651992, 91.8112564086914, -37.89713668823242, -52.77494812011719, 6.036690711975098, 7.77642822265625, -0.23797085881233215, 1.274730920791626, 0.014228706248104572, 1.2661499977111816, 
5, 1390660325, 91.82560729980469, -37.907447814941406, -52.77654266357422, 6.030529022216797, 7.775486946105957, -0.2614338994026184, 1.605769157409668, -0.11226719617843628, 1.2401260137557983, 
6, 1390668658, 91.85672760009766, -37.911231994628906, -52.76492691040039, 6.019014358520508, 7.789095878601074, -0.2798826992511749, 1.7728248834609985, -0.2992767095565796, 1.2566982507705688, 
7, 1390676991, 91.87628936767578, -37.9216194152832, -52.771121978759766, 6.001996040344238, 7.778882026672363, -0.28035083413124084, 1.8905993700027466, -0.5469407439231873, 1.2650997638702393, 
8, 1390685324, 91.92036437988281, -37.91243362426758, -52.780128479003906, 6.021542072296143, 7.779667854309082, -0.24619273841381073, 2.2313709259033203, -0.7046219110488892, 1.3457077741622925, 
9, 1390693657, 91.94770812988281, -37.923580169677734, -52.791324615478516, 6.005153179168701, 7.792758941650391, -0.263284832239151, 2.4539589881896973, -1.0162960290908813, 1.3723210096359253, 
10, 1390701990, 91.98578643798828, -37.91153335571289, -52.825042724609375, 5.990081787109375, 7.8007330894470215, -0.2797379791736603, 2.643965244293213, -1.1395516395568848, 1.3315175771713257, 
11, 1390710323, 92.01923370361328, -37.921775817871094, -52.83936309814453, 5.991325855255127, 7.784973621368408, -0.27805596590042114, 2.9585084915161133, -1.3121662139892578, 1.2760629653930664, 
12, 1390718656, 92.06352233886719, -37.906063079833984, -52.849632263183594, 5.987468719482422, 7.792867660522461, -0.23938436806201935, 3.2828354835510254, -1.4780693054199219, 1.381337285041809, 
13, 1390726989, 92.10313415527344, -37.91606903076172, -52.86860656738281, 5.981574058532715, 7.809994697570801, -0.24260257184505463, 3.3545680046081543, -1.7520904541015625, 1.2653943300247192, 
14, 1390735322, 92.14413452148438, -37.89802169799805, -52.877113342285156, 6.003066062927246, 7.78299617767334, -0.24840375781059265, 3.7737324237823486, -2.0510854721069336, 1.3069281578063965, 
15, 1390743655, 92.19127655029297, -37.90801239013672, -52.899234771728516, 5.9971394538879395, 7.800177097320557, -0.24342080950737, 4.027851581573486, -2.046679973602295, 1.2757041454315186, 
16, 1390751988, 92.23236083984375, -37.8930549621582, -52.91439437866211, 5.972960948944092, 7.797304153442383, -0.21732363104820251, 4.322491645812988, -2.286505699157715, 1.3024710416793823, 
17, 1390760321, 92.28687286376953, -37.90291213989258, -52.94076156616211, 5.996203899383545, 7.7904839515686035, -0.23316581547260284, 4.5992021560668945, -2.45102596282959, 1.2798280715942383, 
18, 1390768654, 92.3272705078125, -37.888370513916016, -52.94932174682617, 5.972005367279053, 7.7931389808654785, -0.21357810497283936, 4.848018169403076, -2.5960538387298584, 1.1997835636138916, 
19, 1390776987, 92.38799285888672, -37.897735595703125, -52.97845458984375, 5.984208583831787, 7.799117565155029, -0.24132505059242249, 5.1412506103515625, -2.7112667560577393, 1.2360020875930786, 
20, 1390785320, 92.43161010742188, -37.88480758666992, -52.9854850769043, 6.009443283081055, 7.8034348487854, -0.2225686013698578, 5.304234027862549, -3.1835930347442627, 1.2835931777954102, 
21, 1390793653, 92.49976348876953, -37.89399719238281, -53.01960372924805, 5.981446743011475, 7.794846534729004, -0.24077963829040527, 5.663192272186279, -3.1812877655029297, 1.2420982122421265, 
22, 1390801986, 92.54710388183594, -37.88273239135742, -53.03767395019531, 5.999344825744629, 7.7974019050598145, -0.222954660654068, 5.900354385375977, -3.43924880027771, 1.2446084022521973, 
23, 1390810319, 92.62090301513672, -37.89210891723633, -53.07579040527344, 6.002466678619385, 7.812403678894043, -0.2510020434856415, 6.047687530517578, -3.5557940006256104, 1.287589192390442, 
24, 1390818652, 92.67121887207031, -37.882076263427734, -53.0929069519043, 6.011159420013428, 7.804020404815674, -0.23566217720508575, 6.327574253082275, -3.6439836025238037, 1.1776273250579834, 
25, 1390826985, 92.75127410888672, -37.89064407348633, -53.13529586791992, 6.006781101226807, 7.7952494621276855, -0.2608804702758789, 6.482567310333252, -3.9621899127960205, 1.21855890750885, 
26, 1390835318, 92.80659484863281, -37.88289260864258, -53.15977096557617, 6.008181095123291, 7.803471088409424, -0.2460181713104248, 6.687173843383789, -4.1102399826049805, 1.2337483167648315, 
27, 1390843651, 92.89179229736328, -37.89219665527344, -53.20549774169922, 6.002021312713623, 7.778295993804932, -0.2589418292045593, 6.854253768920898, -4.27235221862793, 1.3295196294784546, 
28, 1390851984, 92.95221710205078, -37.88698959350586, -53.248592376708984, 6.034595489501953, 7.767822265625, -0.2506266236305237, 7.020670413970947, -4.595500946044922, 1.3691192865371704, 
29, 1390860317, 93.04322052001953, -37.895896911621094, -53.29803466796875, 6.058200359344482, 7.772411823272705, -0.22425073385238647, 7.277862071990967, -4.621319770812988, 1.3126654624938965, 
30, 1390868650, 93.10565185546875, -37.894039154052734, -53.32332992553711, 6.041621685028076, 7.7861738204956055, -0.2095450907945633, 7.322009086608887, -4.797674179077148, 1.4124201536178589, 
31, 1390876983, 93.20165252685547, -37.90327453613281, -53.377052307128906, 6.035728454589844, 7.777551651000977, -0.2165844589471817, 7.5605926513671875, -5.02000617980957, 1.3888423442840576, 
32, 1390885316, 93.26559448242188, -37.903541564941406, -53.40916442871094, 6.057581424713135, 7.780087471008301, -0.2041088044643402, 7.614947319030762, -5.073488712310791, 1.4710897207260132, 
33, 1390893649, 93.3647232055664, -37.91416931152344, -53.464664459228516, 6.048261642456055, 7.798600196838379, -0.22325389087200165, 7.805362701416016, -5.17476749420166, 1.5761080980300903, 
34, 1390901982, 93.42919921875, -37.9157600402832, -53.49922180175781, 6.057460308074951, 7.795809745788574, -0.20557165145874023, 7.797909259796143, -5.271103382110596, 1.4624834060668945, 
35, 1390910315, 93.53034973144531, -37.925048828125, -53.5558967590332, 6.059088230133057, 7.769240856170654, -0.19314898550510406, 7.96014928817749, -5.288392066955566, 1.4388155937194824, 
36, 1390918648, 93.59564971923828, -37.928897857666016, -53.591552734375, 6.02633810043335, 7.790602684020996, -0.17931276559829712, 8.035890579223633, -5.465668201446533, 1.5863792896270752, 
37, 1390926981, 93.69939422607422, -37.93778610229492, -53.64943313598633, 6.039212226867676, 7.805892467498779, -0.1772742122411728, 8.184247970581055, -5.39958381652832, 1.4140980243682861, 
38, 1390935314, 93.76484680175781, -37.940956115722656, -53.68280029296875, 6.033694267272949, 7.817597389221191, -0.17900025844573975, 8.31203842163086, -5.566512107849121, 1.4793888330459595, 
39, 1390943647, 93.87096405029297, -37.950592041015625, -53.74159622192383, 6.0520758628845215, 7.802148818969727, -0.1620223969221115, 8.396462440490723, -5.477707386016846, 1.5267493724822998, 
40, 1390951980, 93.93582153320312, -37.953853607177734, -53.77898025512695, 6.03145170211792, 7.83643913269043, -0.21033915877342224, 8.454298973083496, -5.677242279052734, 1.470141887664795, 
41, 1390960313, 94.047119140625, -37.962547302246094, -53.84197235107422, 6.025490760803223, 7.80588960647583, -0.21678082644939423, 8.710890769958496, -5.87699556350708, 1.4563488960266113, 
42, 1390968646, 94.11588287353516, -37.965579986572266, -53.87759017944336, 6.033092975616455, 7.819759368896484, -0.20520567893981934, 8.832314491271973, -5.958998680114746, 1.4926824569702148, 
43, 1390976979, 94.23004913330078, -37.97380447387695, -53.94288635253906, 6.003556728363037, 7.813327312469482, -0.21050000190734863, 8.882160186767578, -6.094651699066162, 1.4354348182678223, 
44, 1390985312, 94.30121612548828, -37.97672653198242, -53.983455657958984, 6.02940559387207, 7.834094047546387, -0.20903997123241425, 9.008668899536133, -6.278895378112793, 1.5374306440353394, 
45, 1390993645, 94.4209976196289, -37.98579025268555, -54.05319595336914, 6.014286518096924, 7.8088226318359375, -0.22375690937042236, 9.229642868041992, -6.500458240509033, 1.5883517265319824, 
46, 1391001978, 94.49544525146484, -37.98822021484375, -54.10069274902344, 6.017176151275635, 7.832909107208252, -0.1877025067806244, 9.310941696166992, -6.54146671295166, 1.5260065793991089, 
47, 1391010311, 94.61824035644531, -37.995880126953125, -54.17179489135742, 5.9976606369018555, 7.849348068237305, -0.16965509951114655, 9.495171546936035, -6.634074687957764, 1.4520198106765747, 
48, 1391018644, 94.69361877441406, -37.99661636352539, -54.215492248535156, 6.008396148681641, 7.860577583312988, -0.1869806945323944, 9.500998497009277, -6.6991729736328125, 1.3991647958755493, 
49, 1391026977, 94.81884765625, -38.003665924072266, -54.287960052490234, 5.995652198791504, 7.851060390472412, -0.17940039932727814, 9.683064460754395, -6.763900279998779, 1.414738416671753, 
50, 1391035310, 94.89566040039062, -38.003875732421875, -54.332275390625, 6.0028839111328125, 7.83564567565918, -0.17750802636146545, 9.71070384979248, -6.880342483520508, 1.4250863790512085, 
51, 1391043643, 95.02257537841797, -38.010929107666016, -54.40544128417969, 6.001198768615723, 7.845771312713623, -0.1806184947490692, 9.836085319519043, -6.82335090637207, 1.4436312913894653, 
52, 1391051976, 95.09952545166016, -38.010982513427734, -54.45097732543945, 6.021763801574707, 7.821994304656982, -0.15876448154449463, 9.80949592590332, -6.977087020874023, 1.4622526168823242, 
53, 1391060309, 95.22709655761719, -38.01766586303711, -54.52486038208008, 6.02030611038208, 7.836101055145264, -0.1565137654542923, 9.863901138305664, -6.888103485107422, 1.4283393621444702, 
54, 1391068642, 95.30338287353516, -38.01735305786133, -54.56977081298828, 6.033726692199707, 7.821692943572998, -0.13525676727294922, 9.968637466430664, -6.926908493041992, 1.41471266746521, 
55, 1391076975, 95.43206024169922, -38.023799896240234, -54.64323425292969, 6.014596462249756, 7.801746368408203, -0.16029490530490875, 10.031853675842285, -6.841997146606445, 1.4215772151947021, 
56, 1391085308, 95.50737762451172, -38.02286911010742, -54.6903076171875, 6.036403656005859, 7.808927536010742, -0.11268492043018341, 10.059861183166504, -6.90376615524292, 1.3260232210159302, 
57, 1391093641, 95.63626098632812, -38.0292854309082, -54.76322555541992, 6.031813144683838, 7.813869953155518, -0.1504821479320526, 10.100371360778809, -6.78311014175415, 1.440377950668335, 
58, 1391101974, 95.7085189819336, -38.02967834472656, -54.80841064453125, 6.0515666007995605, 7.812138080596924, -0.1682492345571518, 10.025654792785645, -6.713901042938232, 1.4414794445037842, 
59, 1391110307, 95.83466339111328, -38.03571701049805, -54.879703521728516, 6.055378437042236, 7.8215789794921875, -0.1202993392944336, 9.89785385131836, -6.625865459442139, 1.40027916431427, 
60, 1391118640, 95.90487670898438, -38.03569030761719, -54.919315338134766, 6.0345611572265625, 7.816410064697266, -0.1436900645494461, 9.931459426879883, -6.722341537475586, 1.3680307865142822, 
61, 1391126973, 96.03077697753906, -38.0419807434082, -54.99095153808594, 6.038241386413574, 7.804827690124512, -0.14540085196495056, 9.84357738494873, -6.652069091796875, 1.4578598737716675, 
62, 1391135306, 96.09910583496094, -38.04249954223633, -55.030555725097656, 6.063648700714111, 7.813960075378418, -0.16425924003124237, 9.918511390686035, -6.62809419631958, 1.4049793481826782, 
63, 1391143639, 96.22329711914062, -38.04814147949219, -55.1007080078125, 6.051379680633545, 7.823172569274902, -0.1592760980129242, 9.748702049255371, -6.517734050750732, 1.3901102542877197, 
64, 1391151972, 96.28820037841797, -38.04903030395508, -55.14442825317383, 6.042038917541504, 7.797077655792236, -0.16131320595741272, 9.67711067199707, -6.547819137573242, 1.4154428243637085, 
65, 1391160305, 96.41053009033203, -38.05498123168945, -55.214942932128906, 6.071623802185059, 7.805252552032471, -0.16486161947250366, 9.507633209228516, -6.5326032638549805, 1.4511618614196777, 
66, 1391168638, 96.47315979003906, -38.056175231933594, -55.25775909423828, 6.06104850769043, 7.809850215911865, -0.11889088153839111, 9.449578285217285, -6.61014986038208, 1.4319638013839722, 
67, 1391176971, 96.59347534179688, -38.06245040893555, -55.327640533447266, 6.05890417098999, 7.829891681671143, -0.14384347200393677, 9.316165924072266, -6.469285011291504, 1.5022876262664795, 
68, 1391185304, 96.6521224975586, -38.06451416015625, -55.366085052490234, 6.051274299621582, 7.840273380279541, -0.1220526322722435, 9.305665969848633, -6.333683967590332, 1.488148808479309, 
69, 1391193637, 96.76873779296875, -38.07134246826172, -55.43336868286133, 6.035802364349365, 7.840953826904297, -0.10989344865083694, 9.067261695861816, -6.213181495666504, 1.5613670349121094, 
70, 1391201970, 96.82162475585938, -38.07284164428711, -55.46343994140625, 6.05091667175293, 7.820758819580078, -0.10270406305789948, 8.931838035583496, -6.109801769256592, 1.399997353553772, 
71, 1391210303, 96.93507385253906, -38.07887268066406, -55.52830505371094, 6.0306243896484375, 7.816323280334473, -0.11340454965829849, 8.863692283630371, -6.0007500648498535, 1.456720232963562, 
72, 1391218636, 96.98399353027344, -38.081485748291016, -55.558067321777344, 6.012191295623779, 7.81184196472168, -0.12362850457429886, 8.815472602844238, -5.79587459564209, 1.4914658069610596, 
73, 1391226969, 97.09329986572266, -38.08755874633789, -55.61970520019531, 6.018867015838623, 7.825150012969971, -0.11227602511644363, 8.611954689025879, -5.687974452972412, 1.443016529083252, 
74, 1391235302, 97.1371841430664, -38.08966827392578, -55.65109634399414, 6.016434669494629, 7.838685035705566, -0.100533626973629, 8.487597465515137, -5.583416938781738, 1.4109219312667847, 
75, 1391243635, 97.2430191040039, -38.09514617919922, -55.70976638793945, 6.006930828094482, 7.817901611328125, -0.10724969208240509, 8.420488357543945, -5.414670467376709, 1.3519577980041504, 
76, 1391251968, 97.28321838378906, -38.09697723388672, -55.734375, 6.006834983825684, 7.844902992248535, -0.08882622420787811, 8.328007698059082, -5.361098289489746, 1.3653156757354736, 
77, 1391260301, 97.38504028320312, -38.102508544921875, -55.79134750366211, 5.99671745300293, 7.851755619049072, -0.11758070439100266, 8.067869186401367, -5.256283760070801, 1.3529438972473145, 
78, 1391268634, 97.4197006225586, -38.103755950927734, -55.8123779296875, 6.002789497375488, 7.850198745727539, -0.11105580627918243, 8.032011032104492, -5.022862434387207, 1.2772284746170044, 
79, 1391276967, 97.51773071289062, -38.10915756225586, -55.86590576171875, 6.008230686187744, 7.839839458465576, -0.07821187376976013, 7.872920989990234, -4.935133457183838, 1.3073508739471436, 
80, 1391285300, 97.5479965209961, -38.11105728149414, -55.88920593261719, 6.003060340881348, 7.861238479614258, -0.08534596115350723, 7.737152099609375, -4.8373003005981445, 1.347885251045227, 
81, 1391293633, 97.64238739013672, -38.11668395996094, -55.94120407104492, 6.013580322265625, 7.84902811050415, -0.09583719074726105, 7.553447246551514, -4.785943031311035, 1.3260363340377808, 
82, 1391301966, 97.66864776611328, -38.118690490722656, -55.95760726928711, 6.001491069793701, 7.833605766296387, -0.08284999430179596, 7.458558082580566, -4.690376281738281, 1.3590145111083984, 
83, 1391310299, 97.76014709472656, -38.12290573120117, -56.006507873535156, 6.027901649475098, 7.825015544891357, -0.07052630186080933, 7.43766975402832, -4.517967224121094, 1.1306252479553223, 
84, 1391318632, 97.78114318847656, -38.12409210205078, -56.02012252807617, 6.014217376708984, 7.8467936515808105, -0.09675630182027817, 7.094720363616943, -4.471323013305664, 1.2315707206726074, 
85, 1391326965, 97.86817169189453, -38.128761291503906, -56.06783676147461, 6.018828868865967, 7.830836772918701, -0.10910013318061829, 6.995656967163086, -4.400640964508057, 1.1803807020187378, 
86, 1391335298, 97.8840560913086, -38.1305046081543, -56.078041076660156, 6.0421462059021, 7.81973934173584, -0.08416370302438736, 6.739080905914307, -4.210583686828613, 1.2710810899734497, 
87, 1391343631, 97.9666976928711, -38.13583755493164, -56.1227912902832, 6.053297519683838, 7.819341659545898, -0.08519008010625839, 6.692988395690918, -4.112059116363525, 1.2285741567611694, 
88, 1391351964, 97.97647857666016, -38.13813018798828, -56.128604888916016, 6.0384931564331055, 7.82002067565918, -0.058555908501148224, 6.3634724617004395, -3.838229179382324, 1.2666494846343994, 
89, 1391360297, 98.051025390625, -38.1446647644043, -56.1679573059082, 6.055534362792969, 7.821876049041748, -0.05345873534679413, 6.128961086273193, -3.5930368900299072, 1.3064666986465454, 
90, 1391368630, 98.05427551269531, -38.147125244140625, -56.17048645019531, 6.021121025085449, 7.796525001525879, -0.0722634345293045, 5.995203971862793, -3.3992650508880615, 1.2127442359924316, 
91, 1391376963, 98.12261962890625, -38.153648376464844, -56.20577621459961, 6.054848670959473, 7.789666652679443, -0.05913369357585907, 5.691405773162842, -3.2105135917663574, 1.2571978569030762, 
92, 1391385296, 98.11943817138672, -38.15719223022461, -56.21037673950195, 6.0428080558776855, 7.7985520362854, -0.08095955848693848, 5.567305088043213, -3.024874687194824, 1.2718236446380615, 
93, 1391393629, 98.17996215820312, -38.16405487060547, -56.2406120300293, 6.052252769470215, 7.796605110168457, -0.07714937627315521, 5.137190818786621, -2.735408067703247, 1.233146071434021, 
94, 1391401962, 98.1682357788086, -38.168067932128906, -56.23345947265625, 6.043761253356934, 7.791934013366699, -0.06616418063640594, 4.925771236419678, -2.5864615440368652, 1.2504100799560547, 
95, 1391410295, 98.22320556640625, -38.175662994384766, -56.26039505004883, 6.031374931335449, 7.78545618057251, -0.055506929755210876, 4.719845294952393, -2.417266607284546, 1.279623031616211, 
96, 1391418628, 98.20399475097656, -38.17972183227539, -56.25226974487305, 6.045913219451904, 7.803234100341797, -0.03643418103456497, 4.38422155380249, -2.1953959465026855, 1.1838258504867554, 
97, 1391426961, 98.25096130371094, -38.187347412109375, -56.274810791015625, 6.03805685043335, 7.785292148590088, -0.06632296741008759, 4.0935258865356445, -2.0098466873168945, 1.2262942790985107, 
98, 1391435294, 98.2252426147461, -38.193389892578125, -56.26021957397461, 6.033037185668945, 7.810266494750977, -0.06947361677885056, 3.882439136505127, -1.8696085214614868, 1.3638428449630737, 
99, 1391443627, 98.26586151123047, -38.202049255371094, -56.28000259399414, 6.039529323577881, 7.7924323081970215, -0.07540348172187805, 3.5407707691192627, -1.7356204986572266, 1.3152012825012207, 
100, 1391451960, 98.23258209228516, -38.207427978515625, -56.259090423583984, 6.0461039543151855, 7.8322649002075195, -0.07449629157781601, 3.331937551498413, -1.4675416946411133, 1.216355800628662, 
101, 1391460293, 98.26593780517578, -38.216949462890625, -56.27335739135742, 6.034740447998047, 7.808791637420654, -0.06640950590372086, 3.085644483566284, -1.212347388267517, 1.3425958156585693, 
102, 1391468626, 98.22528839111328, -38.224037170410156, -56.25043869018555, 6.032111167907715, 7.817201614379883, -0.08473176509141922, 2.7776846885681152, -1.0487620830535889, 1.3653156757354736, 
103, 1391476959, 98.25247955322266, -38.23331832885742, -56.262142181396484, 6.035571575164795, 7.815850734710693, -0.0891018882393837, 2.544236421585083, -0.9799877405166626, 1.2804813385009766, 
104, 1391485292, 98.2060775756836, -38.24015426635742, -56.23687744140625, 6.028881072998047, 7.8279829025268555, -0.0741187334060669, 2.3334569931030273, -0.7555046677589417, 1.2921100854873657, 
105, 1391493625, 98.22663879394531, -38.25033950805664, -56.24502182006836, 6.034660816192627, 7.811529159545898, -0.06331529468297958, 2.022653818130493, -0.6379866600036621, 1.3419042825698853, 
106, 1391501958, 98.17412567138672, -38.25729751586914, -56.216609954833984, 6.020272731781006, 7.827220439910889, -0.06513041257858276, 1.7737089395523071, -0.5481061935424805, 1.2811213731765747, 
107, 1391510291, 98.18941497802734, -38.26697540283203, -56.22122573852539, 6.012011528015137, 7.81455659866333, -0.07321655750274658, 1.6613136529922485, -0.32434022426605225, 1.2337607145309448, 
108, 1391518624, 98.13141632080078, -38.273929595947266, -56.1883430480957, 6.015590667724609, 7.802885055541992, -0.06891004741191864, 1.4150071144104004, -0.18184825778007507, 1.237500548362732, 
109, 1391526957, 98.1400375366211, -38.28436279296875, -56.1888542175293, 6.016909599304199, 7.838165283203125, -0.09082930535078049, 1.1757317781448364, 0.06714771687984467, 1.2699922323226929, 
110, 1391535290, 98.07621002197266, -38.292362213134766, -56.15330505371094, 6.0268354415893555, 7.820117473602295, -0.10260753333568573, 0.9998900890350342, 0.20000873506069183, 1.3245503902435303, 
111, 1391543623, 98.08138275146484, -38.30287170410156, -56.15234375, 6.027865409851074, 7.823472023010254, -0.11320804804563522, 0.8796567916870117, 0.19975261390209198, 1.261027216911316, 
112, 1391551956, 98.0139389038086, -38.30979919433594, -56.114566802978516, 6.026191711425781, 7.8156819343566895, -0.07257962226867676, 0.685206413269043, 0.3572673201560974, 1.1834800243377686, 
113, 1391560289, 98.01250457763672, -38.32015609741211, -56.108463287353516, 6.025863170623779, 7.827850818634033, -0.10564782470464706, 0.4799083173274994, 0.6695817112922668, 1.175437092781067, 
114, 1391568622, 97.93881225585938, -38.32672119140625, -56.06700897216797, 6.036069393157959, 7.836153984069824, -0.0850115418434143, 0.2634168267250061, 0.7778275012969971, 1.0929081439971924, 
115, 1391576955, 97.93296813964844, -38.337257385253906, -56.05719757080078, 6.0204267501831055, 7.846017837524414, -0.1252395063638687, 0.2383916676044464, 1.011045217514038, 1.1505913734436035, 
116, 1391585288, 97.85551452636719, -38.345394134521484, -56.01179122924805, 6.036797523498535, 7.842700004577637, -0.08019381016492844, 0.0756644457578659, 1.1657294034957886, 1.2462093830108643, 
117, 1391593621, 97.84380340576172, -38.356178283691406, -56.000308990478516, 6.038850784301758, 7.844987392425537, -0.09944017231464386, -0.3325880169868469, 1.1646279096603394, 1.1637827157974243, 
118, 1391601954, 97.83145904541016, -38.36669921875, -55.987709045410156, 6.045345306396484, 7.850645542144775, -0.10455548763275146, -0.354142427444458, 1.2772539854049683, 1.1143217086791992, 
119, 1391610287, 97.7463150024414, -38.37455749511719, -55.93513488769531, 6.031651020050049, 7.836463451385498, -0.12843875586986542, -0.547875702381134, 1.5098823308944702, 1.185503602027893, 
120, 1391618620, 97.6590347290039, -38.3820686340332, -55.88198471069336, 6.033015727996826, 7.827025890350342, -0.12005205452442169, -0.7560041546821594, 1.6595720052719116, 1.141524076461792, 
121, 1391626953, 97.63815307617188, -38.393577575683594, -55.863807678222656, 6.0356245040893555, 7.828361988067627, -0.09596608579158783, -0.9128656983375549, 1.7813034057617188, 1.1729141473770142, 
122, 1391635286, 97.54536437988281, -38.4012451171875, -55.806854248046875, 6.0286359786987305, 7.814395904541016, -0.1321350634098053, -1.1675224304199219, 2.0153539180755615, 1.1293059587478638, 
123, 1391643619, 97.51969909667969, -38.4134407043457, -55.78520202636719, 6.023239612579346, 7.824688911437988, -0.09296657145023346, -1.216253638267517, 2.107590675354004, 1.218008041381836, 
124, 1391651952, 97.42435455322266, -38.42128372192383, -55.72761535644531, 6.017326354980469, 7.8279852867126465, -0.12110544741153717, -1.3184287548065186, 2.2658095359802246, 1.1407300233840942, 
125, 1391660285, 97.39337921142578, -38.43348693847656, -55.703277587890625, 6.038236141204834, 7.824261665344238, -0.10086183249950409, -1.6392470598220825, 2.3529748916625977, 1.1936490535736084, 
126, 1391668618, 97.29217529296875, -38.44108200073242, -55.64036560058594, 6.033490180969238, 7.836806297302246, -0.11099044233560562, -1.717319130897522, 2.687932252883911, 1.0770273208618164, 
127, 1391676951, 97.25633239746094, -38.45232009887695, -55.6120719909668, 6.015231132507324, 7.825679779052734, -0.12105090916156769, -1.9186726808547974, 2.695129871368408, 1.0400148630142212, 
128, 1391685284, 97.15131378173828, -38.46022033691406, -55.547080993652344, 6.03464412689209, 7.807109832763672, -0.14177682995796204, -2.071614980697632, 2.878450393676758, 1.1190345287322998, 
129, 1391693617, 97.11156463623047, -38.472110748291016, -55.516902923583984, 6.045724868774414, 7.80466890335083, -0.1289946436882019, -2.2347137928009033, 2.8698055744171143, 1.102936029434204, 
130, 1391701950, 97.00324249267578, -38.47944259643555, -55.44855499267578, 6.038599014282227, 7.797112941741943, -0.13768142461776733, -2.3068816661834717, 3.1386399269104004, 1.0422176122665405, 
131, 1391710283, 96.95857238769531, -38.4903564453125, -55.41435241699219, 6.054843425750732, 7.809321880340576, -0.16407471895217896, -2.5104897022247314, 3.2186338901519775, 0.9488793611526489, 
132, 1391718616, 96.84740447998047, -38.4979362487793, -55.345760345458984, 6.035481929779053, 7.811511993408203, -0.13360793888568878, -2.5645740032196045, 3.324087381362915, 1.073262095451355, 
133, 1391726949, 96.79890441894531, -38.50954055786133, -55.30863571166992, 6.041234493255615, 7.823932647705078, -0.12126930803060532, -2.7414021492004395, 3.495626211166382, 1.0106353759765625, 
134, 1391735282, 96.68498992919922, -38.516815185546875, -55.23472595214844, 6.044586181640625, 7.827394962310791, -0.1451358050107956, -2.786201238632202, 3.515784740447998, 1.040527105331421, 
135, 1391743615, 96.63488006591797, -38.52944564819336, -55.19728469848633, 6.050220012664795, 7.82583475112915, -0.12623059749603271, -2.9012861251831055, 3.52728533744812, 1.143393874168396, 
136, 1391751948, 96.519287109375, -38.5368537902832, -55.123817443847656, 6.053436756134033, 7.827070236206055, -0.15337558090686798, -2.962632179260254, 3.6247217655181885, 1.072954773902893, 
137, 1391760281, 96.46672058105469, -38.548973083496094, -55.08438491821289, 6.042160511016846, 7.832236289978027, -0.14489366114139557, -3.0306124687194824, 3.692958354949951, 1.0731596946716309, 
138, 1391768614, 96.35011291503906, -38.55571746826172, -55.01105499267578, 6.054795742034912, 7.840747833251953, -0.1710958331823349, -3.049605131149292, 3.7377829551696777, 1.0124026536941528, 
139, 1391776947, 96.2967300415039, -38.56829071044922, -54.971412658691406, 6.040685176849365, 7.8474297523498535, -0.14764167368412018, -3.102280855178833, 3.7101962566375732, 1.1399872303009033, 
140, 1391785280, 96.18035125732422, -38.575294494628906, -54.89813232421875, 6.041436672210693, 7.814333438873291, -0.16901053488254547, -3.1036765575408936, 3.721966505050659, 1.0787307024002075, 
141, 1391793613, 96.12644958496094, -38.586971282958984, -54.85795211791992, 6.04334020614624, 7.833697319030762, -0.16233982145786285, -3.1142683029174805, 3.735119342803955, 1.0422945022583008, 
142, 1391801946, 96.01012420654297, -38.59366989135742, -54.78305435180664, 6.032537460327148, 7.843212127685547, -0.1466749608516693, -3.1111180782318115, 3.790318012237549, 1.0658339262008667, 
143, 1391810279, 95.95658111572266, -38.605377197265625, -54.743125915527344, 6.030941009521484, 7.82673454284668, -0.18783524632453918, -3.074617624282837, 3.702486753463745, 1.0609160661697388, 
144, 1391818612, 95.84087371826172, -38.61231231689453, -54.668495178222656, 6.024857997894287, 7.822451591491699, -0.1804453730583191, -3.1341965198516846, 3.7642171382904053, 1.133430004119873, 
145, 1391826945, 95.7852783203125, -38.62456130981445, -54.62651062011719, 6.009764194488525, 7.816502571105957, -0.17156291007995605, -3.1540732383728027, 3.8884716033935547, 1.1182407140731812, 
146, 1391835278, 95.66925811767578, -38.63007354736328, -54.55256652832031, 6.024760723114014, 7.818602085113525, -0.14890678226947784, -3.232567548751831, 3.764216661453247, 1.0013116598129272, 
147, 1391843611, 95.61519622802734, -38.64133834838867, -54.51154327392578, 5.992571830749512, 7.821704864501953, -0.18918806314468384, -3.0281405448913574, 3.7754745483398438, 1.0251970291137695, 
148, 1391851944, 95.50200653076172, -38.64687728881836, -54.43831253051758, 6.005589962005615, 7.809855937957764, -0.19854971766471863, -3.0370287895202637, 3.6814959049224854, 1.0495561361312866, 
149, 1391860277, 95.44944763183594, -38.65822219848633, -54.39839172363281, 6.013616561889648, 7.805881500244141, -0.16426977515220642, -2.9204964637756348, 3.663731813430786, 1.0574324131011963, 
150, 1391868610, 95.33733367919922, -38.663734436035156, -54.32256317138672, 6.020026683807373, 7.823235988616943, -0.17814475297927856, -2.916961908340454, 3.762807607650757, 1.0724936723709106, 
151, 1391876943, 95.28511047363281, -38.67448806762695, -54.283145904541016, 6.037736892700195, 7.8373212814331055, -0.14412805438041687, -2.906075954437256, 3.5970840454101562, 1.0076639652252197, 
152, 1391885276, 95.17473602294922, -38.678672790527344, -54.21030044555664, 5.993552207946777, 7.835104942321777, -0.16662219166755676, -2.85874080657959, 3.6532304286956787, 0.9579979777336121, 
153, 1391893609, 95.12210083007812, -38.68826675415039, -54.16995620727539, 6.032654762268066, 7.823681354522705, -0.20519593358039856, -2.8736867904663086, 3.659313917160034, 0.8726898431777954, 
154, 1391901942, 95.01229858398438, -38.692230224609375, -54.095428466796875, 6.028095245361328, 7.812353610992432, -0.19568175077438354, -2.861583948135376, 3.6633737087249756, 0.9658615589141846, 
155, 1391910275, 94.96126556396484, -38.70269012451172, -54.0557975769043, 6.035149097442627, 7.822312831878662, -0.19038379192352295, -2.720731496810913, 3.5903217792510986, 0.995471715927124, 
156, 1391918608, 94.85348510742188, -38.70619583129883, -53.98414611816406, 6.037723541259766, 7.8085618019104, -0.18489576876163483, -2.726123332977295, 3.625964403152466, 0.9480725526809692, 
157, 1391926941, 94.80302429199219, -38.71620178222656, -53.945404052734375, 6.0402021408081055, 7.804915428161621, -0.18937939405441284, -2.7063491344451904, 3.4949986934661865, 0.9633386135101318, 
158, 1391935274, 94.69808959960938, -38.719482421875, -53.876956939697266, 6.031682968139648, 7.827805519104004, -0.211436465382576, -2.6101677417755127, 3.444359302520752, 0.9651060700416565, 
159, 1391943607, 94.6482925415039, -38.73009490966797, -53.83879470825195, 6.014388561248779, 7.7991204261779785, -0.19214093685150146, -2.655914306640625, 3.437392234802246, 1.0518101453781128, 
160, 1391951940, 94.54623413085938, -38.73423767089844, -53.769290924072266, 6.029273509979248, 7.792616367340088, -0.20541149377822876, -2.4177277088165283, 3.3671066761016846, 1.105574369430542, 
161, 1391960273, 94.49932861328125, -38.74464416503906, -53.7318115234375, 6.057978630065918, 7.814998626708984, -0.1771644949913025, -2.351796865463257, 3.361689329147339, 1.043703317642212, 
162, 1391968606, 94.39924621582031, -38.74773025512695, -53.66612243652344, 6.03466796875, 7.809839248657227, -0.1865331083536148, -2.4093387126922607, 3.1727840900421143, 1.0203685760498047, 
163, 1391976939, 94.35336303710938, -38.75815200805664, -53.62998962402344, 6.025947093963623, 7.7904181480407715, -0.18637295067310333, -2.3155524730682373, 3.222642421722412, 1.068766713142395, 
164, 1391985272, 94.25703430175781, -38.76062774658203, -53.566932678222656, 6.045516490936279, 7.7922539710998535, -0.18542344868183136, -2.136214256286621, 3.0454299449920654, 0.9840987920761108, 
165, 1391993605, 94.21456909179688, -38.77125549316406, -53.5330924987793, 6.042232036590576, 7.796428203582764, -0.2081834375858307, -2.0651605129241943, 3.002500534057617, 1.1191370487213135, 
166, 1392001938, 94.12210845947266, -38.773868560791016, -53.470428466796875, 6.043524265289307, 7.806294918060303, -0.20859670639038086, -1.9968730211257935, 2.7470502853393555, 1.0433958768844604, 
167, 1392010271, 94.08377838134766, -38.784339904785156, -53.440181732177734, 6.030473232269287, 7.778556823730469, -0.22124040126800537, -1.8289716243743896, 2.6531991958618164, 1.137579321861267, 
168, 1392018604, 93.99664306640625, -38.787322998046875, -53.382938385009766, 6.019626617431641, 7.782407283782959, -0.20743639767169952, -1.6279256343841553, 2.5115270614624023, 1.1249003410339355, 
169, 1392026937, 93.96173095703125, -38.79692077636719, -53.35449981689453, 6.0435404777526855, 7.821282863616943, -0.22416538000106812, -1.5413494110107422, 2.467726707458496, 1.0545125007629395, 
170, 1392035270, 93.87818908691406, -38.80002212524414, -53.29607009887695, 6.026463985443115, 7.777377128601074, -0.23423820734024048, -1.4278911352157593, 2.3330981731414795, 1.1745407581329346, 
171, 1392043603, 93.8477783203125, -38.81047439575195, -53.2709846496582, 6.019533634185791, 7.790857791900635, -0.2619774639606476, -1.2452360391616821, 2.1467416286468506, 1.1854395866394043, 
172, 1392051936, 93.77088928222656, -38.812957763671875, -53.219112396240234, 6.022615909576416, 7.8151702880859375, -0.24054794013500214, -1.087862253189087, 1.87199068069458, 1.153050422668457, 
173, 1392060269, 93.74614715576172, -38.822906494140625, -53.197723388671875, 6.011325836181641, 7.818050861358643, -0.23932766914367676, -0.8297987580299377, 1.7907296419143677, 1.1564444303512573, 
174, 1392068602, 93.67591857910156, -38.82611083984375, -53.15165710449219, 6.012759208679199, 7.816605091094971, -0.240519717335701, -0.6174824237823486, 1.5776704549789429, 1.2861292362213135, 
175, 1392076935, 93.65727996826172, -38.83601379394531, -53.13454818725586, 5.999278545379639, 7.8028059005737305, -0.24040713906288147, -0.40599843859672546, 1.3842957019805908, 1.1819689273834229, 
176, 1392085268, 93.64170837402344, -38.84586715698242, -53.119564056396484, 6.006637096405029, 7.824068069458008, -0.2537813186645508, -0.2317703813314438, 1.2072243690490723, 1.1779729127883911, 
177, 1392093601, 93.57955169677734, -38.84758758544922, -53.07761001586914, 5.995913505554199, 7.8062052726745605, -0.22977077960968018, -0.09662969410419464, 1.0520790815353394, 1.172081708908081, 
178, 1392101934, 93.52208709716797, -38.84846878051758, -53.03681182861328, 5.990448951721191, 7.816690921783447, -0.22575803101062775, 0.25122442841529846, 0.939325213432312, 1.0899367332458496, 
179, 1392110267, 93.51443481445312, -38.85786819458008, -53.026954650878906, 5.991557598114014, 7.808579921722412, -0.2227824479341507, 0.38795316219329834, 0.6845660209655762, 1.1752066612243652, 
180, 1392118600, 93.4632797241211, -38.85853958129883, -52.9907341003418, 5.984783172607422, 7.790789604187012, -0.2282683402299881, 0.6661750078201294, 0.6145623326301575, 1.1073801517486572, 
181, 1392126933, 93.46092224121094, -38.86735534667969, -52.98252868652344, 5.999840259552002, 7.7654194831848145, -0.22881944477558136, 0.9076915979385376, 0.519021213054657, 1.1200592517852783, 
182, 1392135266, 93.41561889648438, -38.867897033691406, -52.949745178222656, 6.014596939086914, 7.782329082489014, -0.22957049310207367, 1.0150665044784546, 0.264748752117157, 1.1271800994873047, 
183, 1392143599, 93.4181137084961, -38.876365661621094, -52.944366455078125, 5.992190361022949, 7.794665336608887, -0.22457964718341827, 1.2898560762405396, 0.24389874935150146, 1.0967248678207397, 
184, 1392151932, 93.37824249267578, -38.87649154663086, -52.915443420410156, 5.995081424713135, 7.795184135437012, -0.2298630177974701, 1.412970781326294, 0.040483295917510986, 1.1112606525421143, 
185, 1392160265, 93.3859634399414, -38.88475036621094, -52.91374206542969, 6.016336917877197, 7.790407180786133, -0.22638335824012756, 1.6481480598449707, -0.10544100403785706, 1.0967503786087036, 
186, 1392168598, 93.35238647460938, -38.88406753540039, -52.88741683959961, 5.998794078826904, 7.796257019042969, -0.24293152987957, 1.8696085214614868, -0.24934177100658417, 1.0462647676467896, 
187, 1392176931, 93.36476135253906, -38.892974853515625, -52.88759994506836, 6.002377510070801, 7.794990062713623, -0.22679372131824493, 2.076699733734131, -0.28637993335723877, 1.186835527420044, 
188, 1392185264, 93.33740234375, -38.89263153076172, -52.863563537597656, 6.037628650665283, 7.805427551269531, -0.21145187318325043, 2.3289999961853027, -0.5187523365020752, 1.1166269779205322, 
189, 1392193597, 93.35517883300781, -38.90167236328125, -52.866905212402344, 6.024866580963135, 7.815720081329346, -0.25902363657951355, 2.495518207550049, -0.5893707871437073, 1.2233102321624756, 
190, 1392201930, 93.33354949951172, -38.90223693847656, -52.84657287597656, 6.038017272949219, 7.789637088775635, -0.22496983408927917, 2.7089614868164062, -0.8082700371742249, 1.2600153684616089, 
191, 1392210263, 93.3572769165039, -38.9105339050293, -52.85323715209961, 6.048506259918213, 7.7800517082214355, -0.21725605428218842, 2.9711103439331055, -0.9110725522041321, 1.1561625003814697, 
192, 1392218596, 93.34046936035156, -38.91029739379883, -52.8392333984375, 6.05002498626709, 7.772780895233154, -0.20799024403095245, 3.004652261734009, -1.0923702716827393, 1.1913692951202393, 
193, 1392226929, 93.36927795410156, -38.91877365112305, -52.84978103637695, 6.0343918800354, 7.774878025054932, -0.22469115257263184, 3.298677921295166, -1.2729121446609497, 1.201973557472229, 
194, 1392235262, 93.36005401611328, -38.91893005371094, -52.837249755859375, 6.036917686462402, 7.773375511169434, -0.2524246871471405, 3.537325859069824, -1.4862658977508545, 1.2643697261810303, 
195, 1392243595, 93.3952407836914, -38.927528381347656, -52.85282516479492, 6.040550231933594, 7.773262977600098, -0.24493280053138733, 3.6930863857269287, -1.7508738040924072, 1.2485657930374146, 
196, 1392251928, 93.39196014404297, -38.92782974243164, -52.8453254699707, 6.046985149383545, 7.769524574279785, -0.21454410254955292, 3.8827080726623535, -1.866266131401062, 1.3158032894134521, 
197, 1392260261, 93.4339370727539, -38.93653106689453, -52.864501953125, 6.017609119415283, 7.766393661499023, -0.25387558341026306, 4.247404098510742, -2.0911078453063965, 1.2860652208328247, 
198, 1392268594, 93.43675994873047, -38.937339782714844, -52.8634033203125, 6.015650272369385, 7.767551898956299, -0.2550050914287567, 4.270200729370117, -2.2305517196655273, 1.4068620204925537, 
199, 1392276927, 93.48336029052734, -38.94655227661133, -52.886714935302734, 6.020867347717285, 7.77770471572876, -0.2746101915836334, 4.4998321533203125, -2.4743480682373047, 1.3757661581039429, 
200, 1392285260, 93.4931869506836, -38.94670104980469, -52.892051696777344, 6.001462459564209, 7.764679908752441, -0.23746849596500397, 4.627403736114502, -2.7657482624053955, 1.3751130104064941, 
201, 1392293593, 93.54469299316406, -38.95489501953125, -52.918663024902344, 6.008089542388916, 7.784856796264648, -0.22948488593101501, 4.848364353179932, -2.792553663253784, 1.278457760810852, 
202, 1392301926, 93.5599594116211, -38.95492172241211, -52.924537658691406, 6.011819839477539, 7.7931437492370605, -0.23267436027526855, 5.103995323181152, -2.930614471435547, 1.3799413442611694, 
203, 1392310259, 93.61857604980469, -38.963714599609375, -52.95612716674805, 6.0206451416015625, 7.811581611633301, -0.2620118260383606, 5.3360724449157715, -3.2581818103790283, 1.3873053789138794, 
204, 1392318592, 93.64163970947266, -38.963443756103516, -52.967803955078125, 6.004417419433594, 7.808770656585693, -0.25386303663253784, 5.6159210205078125, -3.3997905254364014, 1.3899821043014526, 
205, 1392326925, 93.70643615722656, -38.97216033935547, -53.003787994384766, 5.988681316375732, 7.807007312774658, -0.23522187769412994, 5.755774974822998, -3.6707892417907715, 1.4115749597549438, 
206, 1392335258, 93.7349853515625, -38.97181701660156, -53.020572662353516, 5.977331161499023, 7.806138515472412, -0.2442968338727951, 5.856080532073975, -3.867122173309326, 1.4337825775146484, 
207, 1392343591, 93.80524444580078, -38.98037338256836, -53.05986022949219, 5.9720540046691895, 7.82020378112793, -0.21164147555828094, 6.172236919403076, -3.984025001525879, 1.4212570190429688, 
208, 1392351924, 93.84033203125, -38.97886657714844, -53.080841064453125, 5.985537052154541, 7.801509857177734, -0.22502855956554413, 6.338576793670654, -4.213094234466553, 1.338676929473877, 
209, 1392360257, 93.91584777832031, -38.98685073852539, -53.123451232910156, 5.990053653717041, 7.831387042999268, -0.23526515066623688, 6.561368942260742, -4.300694942474365, 1.3842190504074097, 
210, 1392368590, 93.95719146728516, -38.98554611206055, -53.14631652832031, 6.002787113189697, 7.82407808303833, -0.1914369761943817, 6.758520603179932, -4.585831642150879, 1.4105758666992188, 
211, 1392376923, 94.0372085571289, -38.99290084838867, -53.19204330444336, 6.003725528717041, 7.801572799682617, -0.1935597062110901, 6.873528480529785, -4.601507663726807, 1.3431848287582397, 
212, 1392385256, 94.08232879638672, -38.99168014526367, -53.218650817871094, 6.010316848754883, 7.828221321105957, -0.19955261051654816, 7.065610408782959, -4.747509479522705, 1.4563742876052856, 
213, 1392393589, 94.16676330566406, -38.99844741821289, -53.266963958740234, 6.014192581176758, 7.8162031173706055, -0.18902075290679932, 7.219679832458496, -4.8456244468688965, 1.30355966091156, 
214, 1392401922, 94.21627807617188, -38.99673843383789, -53.29368209838867, 6.024726867675781, 7.809312343597412, -0.19792179763317108, 7.493612289428711, -4.859610080718994, 1.427673578262329, 
215, 1392410255, 94.30404663085938, -39.004573822021484, -53.3430290222168, 5.999591827392578, 7.805668354034424, -0.18877385556697845, 7.55033540725708, -4.940128803253174, 1.4520456790924072, 
216, 1392418588, 94.35639190673828, -39.002052307128906, -53.37472915649414, 6.012260913848877, 7.811539649963379, -0.16418351233005524, 7.659195899963379, -5.078240394592285, 1.3697983026504517, 
217, 1392426921, 94.44696807861328, -39.008724212646484, -53.4241943359375, 6.005522727966309, 7.817561149597168, -0.16328702867031097, 7.889263153076172, -4.960517406463623, 1.3283801078796387, 
218, 1392435254, 94.50305938720703, -39.00566482543945, -53.45491027832031, 6.0272111892700195, 7.8001275062561035, -0.1982937604188919, 8.00954532623291, -5.209076881408691, 1.337319016456604, 
219, 1392443587, 94.5976333618164, -39.01165008544922, -53.507240295410156, 6.032765865325928, 7.810333728790283, -0.1727805882692337, 8.160707473754883, -5.238239288330078, 1.2843362092971802, 
220, 1392451920, 94.65611267089844, -39.00837707519531, -53.540863037109375, 6.040763854980469, 7.793915748596191, -0.18711452186107635, 8.158019065856934, -5.386033058166504, 1.3469630479812622, 
221, 1392460253, 94.75325012207031, -39.014732360839844, -53.594940185546875, 6.046938896179199, 7.79958963394165, -0.18583308160305023, 8.347334861755371, -5.400992393493652, 1.3594372272491455, 
222, 1392468586, 94.81483459472656, -39.01176834106445, -53.62919616699219, 6.04606294631958, 7.797782897949219, -0.1720767766237259, 8.513033866882324, -5.415080547332764, 1.406900405883789, 
223, 1392476919, 94.91444396972656, -39.01784896850586, -53.68494415283203, 6.058285236358643, 7.788754940032959, -0.18474581837654114, 8.52723503112793, -5.5580973625183105, 1.357400894165039, 
224, 1392485252, 94.97919464111328, -39.01474380493164, -53.72333526611328, 6.042215824127197, 7.81015682220459, -0.16791459918022156, 8.745046615600586, -5.623016357421875, 1.4260342121124268, 
225, 1392493585, 95.0836410522461, -39.02031326293945, -53.78292465209961, 6.056641101837158, 7.799858570098877, -0.2063831090927124, 8.827408790588379, -5.920436859130859, 1.3476675748825073, 
226, 1392501918, 95.1503677368164, -39.01690673828125, -53.81999588012695, 6.056178092956543, 7.803779125213623, -0.19258970022201538, 8.887500762939453, -5.764804363250732, 1.420770525932312, 
227, 1392510251, 95.25519561767578, -39.023529052734375, -53.87957000732422, 6.054059028625488, 7.821206569671631, -0.18979479372501373, 8.882095336914062, -5.9099860191345215, 1.4954873323440552, 
228, 1392518584, 95.32392883300781, -39.01994323730469, -53.91851806640625, 6.046505451202393, 7.827328681945801, -0.17584757506847382, 8.976330757141113, -5.983114719390869, 1.4381884336471558, 
229, 1392526917, 95.43018341064453, -39.026702880859375, -53.97886657714844, 6.032037258148193, 7.820401668548584, -0.20996104180812836, 9.004481315612793, -5.985881328582764, 1.541285514831543, 
230, 1392535250, 95.50067138671875, -39.02351379394531, -54.02186965942383, 6.020925045013428, 7.814851760864258, -0.18747340142726898, 9.038163185119629, -6.189539909362793, 1.533345103263855, 
231, 1392543583, 95.60994720458984, -39.02947235107422, -54.084991455078125, 6.0261311531066895, 7.816829204559326, -0.17416559159755707, 9.170870780944824, -6.252884387969971, 1.4907742738723755, 
232, 1392551916, 95.68168640136719, -39.026222229003906, -54.128883361816406, 6.027080535888672, 7.821008682250977, -0.17411240935325623, 9.11126708984375, -6.327626705169678, 1.566566824913025, 
233, 1392560249, 95.79133605957031, -39.03192901611328, -54.19268035888672, 6.0164666175842285, 7.812830448150635, -0.17355354130268097, 9.17536449432373, -6.319492816925049, 1.4886096715927124, 
234, 1392568582, 95.86377716064453, -39.02820587158203, -54.24097442626953, 5.996457099914551, 7.8145751953125, -0.1851046085357666, 9.150596618652344, -6.437062740325928, 1.548162817955017, 
235, 1392576915, 95.97479248046875, -39.03432083129883, -54.30731201171875, 6.005218505859375, 7.812617301940918, -0.1737448126077652, 9.159728050231934, -6.547062397003174, 1.5832159519195557, 
236, 1392585248, 96.04750061035156, -39.03004837036133, -54.353302001953125, 6.012164115905762, 7.802163600921631, -0.1853964775800705, 9.209393501281738, -6.459334373474121, 1.513545274734497, 
237, 1392593581, 96.1579818725586, -39.03517150878906, -54.41904067993164, 5.991622447967529, 7.81851053237915, -0.15791890025138855, 9.148816108703613, -6.504646301269531, 1.484268069267273, 
238, 1392601914, 96.23153686523438, -39.030235290527344, -54.46671676635742, 6.00917911529541, 7.837448596954346, -0.1685158610343933, 9.25565242767334, -6.59829044342041, 1.477301001548767, 
239, 1392610247, 96.34323120117188, -39.03469467163086, -54.5333137512207, 5.994802474975586, 7.848031520843506, -0.15570800006389618, 9.240156173706055, -6.596062660217285, 1.4368048906326294, 
240, 1392618580, 96.41493225097656, -39.02973175048828, -54.58148193359375, 5.997154235839844, 7.8398823738098145, -0.12675702571868896, 9.11203384399414, -6.569360256195068, 1.5004308223724365, 
241, 1392626913, 96.5256576538086, -39.0345573425293, -54.64640808105469, 6.030546188354492, 7.829800128936768, -0.15511226654052734, 9.264965057373047, -6.435909748077393, 1.4876877069473267, 
242, 1392635246, 96.59660339355469, -39.02896499633789, -54.692222595214844, 6.015578746795654, 7.845995903015137, -0.12996134161949158, 9.174635887145996, -6.461934566497803, 1.4435927867889404, 
243, 1392643579, 96.70682525634766, -39.03242874145508, -54.75764846801758, 6.014379978179932, 7.8431525230407715, -0.1568000316619873, 9.179168701171875, -6.506721019744873, 1.3514071702957153, 
244, 1392651912, 96.77537536621094, -39.02678680419922, -54.80194854736328, 6.04872989654541, 7.837072849273682, -0.11893577873706818, 9.060882568359375, -6.327856540679932, 1.4500987529754639, 
245, 1392660245, 96.88361358642578, -39.029884338378906, -54.86481857299805, 6.045207977294922, 7.813385963439941, -0.13680242002010345, 9.144601821899414, -6.276384353637695, 1.3052886724472046, 
246, 1392668578, 96.9511947631836, -39.0244255065918, -54.90967559814453, 6.042357921600342, 7.8178606033325195, -0.11426863074302673, 9.071640968322754, -6.260465621948242, 1.4830901622772217, 
247, 1392676911, 97.05745697021484, -39.02840805053711, -54.97099304199219, 6.036190509796143, 7.828002452850342, -0.09190353006124496, 9.038521766662598, -6.120099067687988, 1.4166977405548096, 
248, 1392685244, 97.12165069580078, -39.021915435791016, -55.0119743347168, 6.050210952758789, 7.850648880004883, -0.10480006039142609, 8.923052787780762, -6.059803485870361, 1.3543016910552979, 
249, 1392693577, 97.22407531738281, -39.02585220336914, -55.0701789855957, 6.043849945068359, 7.838823318481445, -0.09372889250516891, 8.8268461227417, -5.8375749588012695, 1.3958991765975952, 
250, 1392701910, 97.28506469726562, -39.01943588256836, -55.110984802246094, 6.0490312576293945, 7.8305745124816895, -0.12865443527698517, 8.803023338317871, -5.83365535736084, 1.3572216033935547, 
251, 1392710243, 97.3846206665039, -39.023193359375, -55.166404724121094, 6.048295974731445, 7.8321943283081055, -0.10109267383813858, 8.704436302185059, -5.5812273025512695, 1.360192894935608, 
252, 1392718576, 97.44097137451172, -39.01734161376953, -55.201236724853516, 6.020616054534912, 7.805688858032227, -0.09482090175151825, 8.621905326843262, -5.469804286956787, 1.3962831497192383, 
253, 1392726909, 97.53719329833984, -39.020870208740234, -55.25410842895508, 6.025411605834961, 7.796964645385742, -0.10825872421264648, 8.510458946228027, -5.351339340209961, 1.3226679563522339, 
254, 1392735242, 97.58998107910156, -39.014652252197266, -55.28648376464844, 6.034354209899902, 7.803998947143555, -0.12646055221557617, 8.520113945007324, -5.191634178161621, 1.3297374248504639, 
255, 1392743575, 97.68307495117188, -39.01860427856445, -55.33765411376953, 6.026773452758789, 7.810152530670166, -0.09616438299417496, 8.275422096252441, -5.189483165740967, 1.3694394826889038, 
256, 1392751908, 97.73097229003906, -39.01272964477539, -55.36934280395508, 6.029656887054443, 7.826391696929932, -0.08149982988834381, 8.203778266906738, -4.955214500427246, 1.3572982549667358, 
257, 1392760241, 97.82137298583984, -39.017276763916016, -55.41777420043945, 6.038304328918457, 7.831025123596191, -0.10235653072595596, 8.173067092895508, -4.9282941818237305, 1.4207959175109863, 
258, 1392768574, 97.86583709716797, -39.01163101196289, -55.4464225769043, 6.020174026489258, 7.818124294281006, -0.12330686300992966, 7.964593887329102, -4.86361837387085, 1.3866523504257202, 
259, 1392776907, 97.9519271850586, -39.01571273803711, -55.4927864074707, 6.019184112548828, 7.835902690887451, -0.111256904900074, 7.828262805938721, -4.747957706451416, 1.3535970449447632, 
260, 1392785240, 97.99073028564453, -39.010467529296875, -55.519287109375, 6.027760028839111, 7.812172889709473, -0.08940808475017548, 7.55778694152832, -4.630887508392334, 1.4183369874954224, 
261, 1392793573, 98.07232666015625, -39.014678955078125, -55.56336975097656, 6.033738613128662, 7.818721771240234, -0.09826046973466873, 7.473797798156738, -4.538675785064697, 1.355223536491394, 
262, 1392801906, 98.1071548461914, -39.0088996887207, -55.58842468261719, 6.036534309387207, 7.838192462921143, -0.10837110877037048, 7.2851881980896, -4.513356685638428, 1.3482693433761597, 
263, 1392810239, 98.18601989746094, -39.01323699951172, -55.63261413574219, 6.02056884765625, 7.830888748168945, -0.12741494178771973, 7.1513285636901855, -4.548396110534668, 1.3851794004440308, 
264, 1392818572, 98.21659851074219, -39.00703430175781, -55.65552520751953, 6.026987075805664, 7.816862106323242, -0.09283887594938278, 6.970529556274414, -4.391931533813477, 1.2945433855056763, 
265, 1392826905, 98.28919982910156, -39.01136779785156, -55.695594787597656, 6.028992176055908, 7.813338756561279, -0.07416021823883057, 6.7264018058776855, -4.173007965087891, 1.3397271633148193, 
266, 1392835238, 98.31324005126953, -39.00564956665039, -55.71611022949219, 6.017473220825195, 7.818968772888184, -0.11350902915000916, 6.5724334716796875, -4.039813041687012, 1.3123711347579956, 
267, 1392843571, 98.38098907470703, -39.010108947753906, -55.75395202636719, 6.031468868255615, 7.815034866333008, -0.10439659655094147, 6.331864833831787, -3.9660696983337402, 1.3351165056228638, 
268, 1392851904, 98.40010833740234, -39.004432678222656, -55.770076751708984, 6.015398025512695, 7.817732810974121, -0.08617831021547318, 6.234992027282715, -3.8414952754974365, 1.3009214401245117, 
269, 1392860237, 98.46253204345703, -39.00923538208008, -55.805110931396484, 6.0160322189331055, 7.805074214935303, -0.09799547493457794, 5.917886734008789, -3.7093634605407715, 1.3469245433807373, 
270, 1392868570, 98.47460174560547, -39.00341033935547, -55.81774139404297, 6.038473606109619, 7.836145877838135, -0.07785394042730331, 5.709592342376709, -3.580498456954956, 1.2530995607376099, 
271, 1392876903, 98.53240203857422, -39.00802993774414, -55.849327087402344, 6.030954837799072, 7.842362403869629, -0.08987807482481003, 5.637027263641357, -3.3979203701019287, 1.286807894706726, 
272, 1392885236, 98.53880310058594, -39.002586364746094, -55.85715866088867, 6.008405685424805, 7.825523853302002, -0.08820304274559021, 5.318437576293945, -3.346282482147217, 1.2756913900375366, 
273, 1392893569, 98.589111328125, -39.00688552856445, -55.88560104370117, 6.028846263885498, 7.8331780433654785, -0.0535421296954155, 4.987117767333984, -3.120826005935669, 1.2136794328689575, 
274, 1392901902, 98.58995056152344, -39.00141525268555, -55.89469909667969, 6.03879451751709, 7.830557346343994, -0.06816524267196655, 4.940935134887695, -3.125154495239258, 1.2459789514541626, 
275, 1392910235, 98.63469696044922, -39.00599670410156, -55.918514251708984, 6.037854194641113, 7.827122688293457, -0.05867486819624901, 4.689326286315918, -2.6920177936553955, 1.1881932020187378, 
276, 1392918568, 98.62727355957031, -39.000797271728516, -55.918609619140625, 6.036653995513916, 7.804817199707031, -0.08117785304784775, 4.508924961090088, -2.5642025470733643, 1.2018710374832153, 
277, 1392926901, 98.66595458984375, -39.00594711303711, -55.93852615356445, 6.036728382110596, 7.821565628051758, -0.07232996821403503, 4.268574237823486, -2.326310634613037, 1.2118479013442993, 
278, 1392935234, 98.65106964111328, -39.00239562988281, -55.934593200683594, 6.048834323883057, 7.809197902679443, -0.07654593139886856, 4.057615280151367, -2.1200902462005615, 1.3369734287261963, 
279, 1392943567, 98.68445587158203, -39.009124755859375, -55.94990539550781, 6.028800964355469, 7.818053722381592, -0.043462228029966354, 3.996589183807373, -1.879418969154358, 1.3380876779556274, 
280, 1392951900, 98.66352844238281, -39.00503158569336, -55.94260787963867, 6.05803108215332, 7.791478157043457, -0.04913998395204544, 3.703434467315674, -1.8040235042572021, 1.2299699783325195, 
281, 1392960233, 98.69039154052734, -39.01203536987305, -55.95458221435547, 6.057685375213623, 7.840020179748535, -0.028295591473579407, 3.4819600582122803, -1.573302984237671, 1.328546166419983, 
282, 1392968566, 98.66215515136719, -39.0087890625, -55.94436264038086, 6.049440383911133, 7.818863391876221, -0.04321390762925148, 3.2042508125305176, -1.4613432884216309, 1.2823381423950195, 
283, 1392976899, 98.68333435058594, -39.01533126831055, -55.952186584472656, 6.041121959686279, 7.84018611907959, -0.06998512893915176, 3.1308023929595947, -1.2013715505599976, 1.2193912267684937, 
284, 1392985232, 98.64840698242188, -39.01234817504883, -55.93376159667969, 6.0459794998168945, 7.828283309936523, -0.07126760482788086, 2.838723659515381, -1.0447406768798828, 1.2605022192001343, 
285, 1392993565, 98.6627426147461, -39.01953887939453, -55.93711471557617, 6.033208847045898, 7.793688774108887, -0.06796590238809586, 2.6633424758911133, -0.7879579067230225, 1.2405742406845093, 
286, 1393001898, 98.6211929321289, -39.01753234863281, -55.91498565673828, 6.044731616973877, 7.811697006225586, -0.07616360485553741, 2.5669562816619873, -0.5075845122337341, 1.303687572479248, 
287, 1393010231, 98.63003540039062, -39.0252685546875, -55.915374755859375, 6.033429145812988, 7.800684928894043, -0.06604127585887909, 2.2436532974243164, -0.5087627172470093, 1.2667264938354492, 
288, 1393018564, 98.5819320678711, -39.02344512939453, -55.88874816894531, 6.0207295417785645, 7.800904273986816, -0.08467171341180801, 2.043426752090454, -0.3004677891731262, 1.3035084009170532, 
289, 1393026897, 98.58382415771484, -39.031166076660156, -55.88469696044922, 6.038039684295654, 7.815535068511963, -0.08811403065919876, 1.7589038610458374, -0.11012839525938034, 1.2091199159622192, 
290, 1393035230, 98.52914428710938, -39.02937698364258, -55.855377197265625, 6.0307159423828125, 7.825249671936035, -0.11369482427835464, 1.5901830196380615, -0.0007812341791577637, 1.2715160846710205, 
291, 1393043563, 98.52666473388672, -39.036991119384766, -55.8498420715332, 6.0277533531188965, 7.817624568939209, -0.10085918009281158, 1.3653924465179443, 0.01854470558464527, 1.1817383766174316, 
292, 1393051896, 98.46714782714844, -39.035247802734375, -55.81716537475586, 6.040651798248291, 7.809932708740234, -0.13399656116962433, 1.2182899713516235, 0.1509190946817398, 1.2673925161361694, 
293, 1393060229, 98.45953369140625, -39.0437126159668, -55.808258056640625, 6.023187160491943, 7.805447101593018, -0.12213478982448578, 1.017679214477539, 0.333830326795578, 1.2420598268508911, 
294, 1393068562, 98.3936538696289, -39.04261779785156, -55.77253341674805, 6.027765274047852, 7.824809551239014, -0.10276489704847336, 0.7655070424079895, 0.4465329349040985, 1.3148043155670166, 
295, 1393076895, 98.3805923461914, -39.051109313964844, -55.761173248291016, 6.021543025970459, 7.808437824249268, -0.1164986789226532, 0.5659977793693542, 0.5537029504776001, 1.2189046144485474, 
296, 1393085228, 98.30882263183594, -39.04948806762695, -55.726226806640625, 6.033209323883057, 7.8170857429504395, -0.11201385408639908, 0.3745056986808777, 0.7207077145576477, 1.2193399667739868, 
297, 1393093561, 98.28987884521484, -39.05839538574219, -55.711219787597656, 6.026170253753662, 7.85739803314209, -0.09236500412225723, 0.15545278787612915, 0.8939623832702637, 1.2254618406295776, 
298, 1393101894, 98.2125244140625, -39.05714797973633, -55.670589447021484, 6.016907215118408, 7.85573148727417, -0.10739994049072266, -0.10367360711097717, 0.873752772808075, 1.2662652730941772, 
299, 1393110227, 98.1893081665039, -39.06583023071289, -55.65367126464844, 6.030125617980957, 7.830610752105713, -0.12201319634914398, -0.1950395703315735, 1.054640293121338, 1.1797404289245605, 
300, 1393118560, 98.10603332519531, -39.064414978027344, -55.614009857177734, 6.02789306640625, 7.823428630828857, -0.10859754681587219, -0.4967496991157532, 1.1672407388687134, 1.2168298959732056, 
301, 1393126893, 98.07720184326172, -39.07320785522461, -55.59413146972656, 6.02225399017334, 7.818783760070801, -0.1186608225107193, -0.6266523003578186, 1.324345588684082, 1.164026141166687, 
302, 1393135226, 97.9883804321289, -39.0716667175293, -55.545249938964844, 6.01513147354126, 7.824897766113281, -0.11162959784269333, -0.839045524597168, 1.4787482023239136, 1.1813926696777344, 
303, 1393143559, 97.9552230834961, -39.08028793334961, -55.523414611816406, 6.0287909507751465, 7.835639953613281, -0.10339909791946411, -0.9862889051437378, 1.4912095069885254, 1.127974033355713, 
304, 1393151892, 97.86219787597656, -39.07844161987305, -55.473567962646484, 6.027896404266357, 7.822972774505615, -0.09494359791278839, -1.0887459516525269, 1.70242440700531, 1.1331738233566284, 
305, 1393160225, 97.8255615234375, -39.08735275268555, -55.44980239868164, 6.015158653259277, 7.817135810852051, -0.1216941550374031, -1.2374621629714966, 1.6652582883834839, 1.1486703157424927, 
306, 1393168558, 97.72879028320312, -39.08527755737305, -55.39778137207031, 6.03431510925293, 7.8163161277771, -0.10388411581516266, -1.3375113010406494, 1.8700438737869263, 1.1032562255859375, 
307, 1393176891, 97.68677520751953, -39.094974517822266, -55.369712829589844, 6.014692306518555, 7.813502788543701, -0.12645871937274933, -1.5399150848388672, 2.0660698413848877, 1.1986950635910034, 
308, 1393185224, 97.58472442626953, -39.09349060058594, -55.310604095458984, 6.03035831451416, 7.838133335113525, -0.10918418318033218, -1.649774432182312, 2.2073066234588623, 1.158019781112671, 
309, 1393193557, 97.53885650634766, -39.10308837890625, -55.27875518798828, 6.030088901519775, 7.826257705688477, -0.1145530566573143, -1.7020018100738525, 2.3995416164398193, 1.1527429819107056, 
310, 1393201890, 97.43248748779297, -39.10054397583008, -55.21656036376953, 6.048415184020996, 7.838550090789795, -0.13526637852191925, -1.7774101495742798, 2.600510597229004, 1.0010554790496826, 
311, 1393210223, 97.38313293457031, -39.10911560058594, -55.180747985839844, 6.034152507781982, 7.848931312561035, -0.10534852743148804, -1.8045870065689087, 2.7443861961364746, 0.9973927736282349, 
312, 1393218556, 97.2740249633789, -39.106605529785156, -55.11887741088867, 6.036077976226807, 7.83936882019043, -0.1274552345275879, -1.9420840740203857, 2.7467169761657715, 1.0151690244674683, 
313, 1393226889, 97.2219009399414, -39.1164665222168, -55.0814094543457, 6.037394046783447, 7.843559741973877, -0.12575511634349823, -1.990494966506958, 2.9068057537078857, 1.1462881565093994, 
314, 1393235222, 97.10981750488281, -39.114952087402344, -55.015506744384766, 6.046895503997803, 7.847995281219482, -0.11806730180978775, -2.0406222343444824, 3.0218136310577393, 1.126642107963562, 
315, 1393243555, 97.05573272705078, -39.12459945678711, -54.975975036621094, 6.051104545593262, 7.817357540130615, -0.14168588817119598, -2.052558422088623, 3.085080862045288, 1.1115809679031372, 
316, 1393251888, 96.94080352783203, -39.122562408447266, -54.90603256225586, 6.030343055725098, 7.822790622711182, -0.1189025267958641, -2.1666693687438965, 3.23830509185791, 1.0732876062393188, 
317, 1393260221, 96.88420867919922, -39.131954193115234, -54.86444091796875, 6.069764137268066, 7.843778133392334, -0.11565907299518585, -2.182281494140625, 3.2602949142456055, 1.0752983093261719, 
318, 1393268554, 96.7665023803711, -39.12965393066406, -54.78999710083008, 6.046216011047363, 7.807902812957764, -0.13535933196544647, -2.2882094383239746, 3.4487521648406982, 1.0466744899749756, 
319, 1393276887, 96.70700073242188, -39.13942337036133, -54.746360778808594, 6.0181427001953125, 7.816707134246826, -0.1361360102891922, -2.3626441955566406, 3.442425012588501, 1.1165757179260254, 
320, 1393285220, 96.58712005615234, -39.13642883300781, -54.6771240234375, 6.025094509124756, 7.823755741119385, -0.15670238435268402, -2.4808285236358643, 3.4868147373199463, 0.9844319820404053, 
321, 1393293553, 96.52611541748047, -39.14558792114258, -54.631717681884766, 6.018763065338135, 7.816181182861328, -0.16950535774230957, -2.389078378677368, 3.5947022438049316, 1.0431910753250122, 
322, 1393301886, 96.40655517578125, -39.143531799316406, -54.55879211425781, 6.022801876068115, 7.8116455078125, -0.17254957556724548, -2.4664077758789062, 3.4494435787200928, 1.1437268257141113, 
323, 1393310219, 96.34561920166016, -39.15335464477539, -54.514984130859375, 6.018610000610352, 7.808926105499268, -0.18830415606498718, -2.4857208728790283, 3.4412472248077393, 1.1569181680679321, 
324, 1393318552, 96.22476196289062, -39.150413513183594, -54.441978454589844, 6.022775173187256, 7.8174004554748535, -0.17985405027866364, -2.539933204650879, 3.526555299758911, 1.0610569715499878, 
325, 1393326885, 96.16288757324219, -39.15972137451172, -54.397003173828125, 6.023899078369141, 7.800923824310303, -0.20845595002174377, -2.493353843688965, 3.5319983959198, 1.1014634370803833, 
326, 1393335218, 96.04286193847656, -39.15610885620117, -54.3240966796875, 6.022485256195068, 7.81249475479126, -0.1772129237651825, -2.5231688022613525, 3.414224147796631, 1.027540683746338, 
327, 1393343551, 95.98045349121094, -39.16503143310547, -54.27958297729492, 6.0231032371521, 7.821606636047363, -0.16667145490646362, -2.576536178588867, 3.4748401641845703, 1.0805493593215942, 
328, 1393351884, 95.85916900634766, -39.16120529174805, -54.208160400390625, 6.015504360198975, 7.816607475280762, -0.17592470347881317, -2.638624906539917, 3.4492900371551514, 1.0311521291732788, 
329, 1393360217, 95.79642486572266, -39.16905975341797, -54.16360855102539, 6.018428325653076, 7.823540687561035, -0.2002524435520172, -2.596322774887085, 3.4590747356414795, 0.9708564281463623, 
330, 1393368550, 95.67655181884766, -39.164527893066406, -54.09241485595703, 6.018102645874023, 7.816917896270752, -0.18557164072990417, -2.5409321784973145, 3.355234384536743, 0.9908611178398132, 
331, 1393376883, 95.61567687988281, -39.172672271728516, -54.04927444458008, 6.0192999839782715, 7.817573070526123, -0.1818545162677765, -2.4639742374420166, 3.3239853382110596, 1.0381962060928345, 
332, 1393385216, 95.4953842163086, -39.16827392578125, -53.977874755859375, 6.023842811584473, 7.827489852905273, -0.1671360284090042, -2.666006326675415, 3.2735633850097656, 1.0495306253433228, 
333, 1393393549, 95.43277740478516, -39.17639923095703, -53.93473434448242, 6.038091659545898, 7.81086540222168, -0.19326373934745789, -2.6578357219696045, 3.3131885528564453, 1.0539873838424683, 
334, 1393401882, 95.3149642944336, -39.171180725097656, -53.87296676635742, 6.042452812194824, 7.816564083099365, -0.20164409279823303, -2.4862327575683594, 3.131366014480591, 0.9968547821044922, 
335, 1393410215, 95.2533187866211, -39.17868423461914, -53.83125305175781, 6.044029235839844, 7.827748775482178, -0.20196199417114258, -2.6259841918945312, 3.1730403900146484, 1.0089191198349, 
336, 1393418548, 95.13545989990234, -39.17361068725586, -53.76255798339844, 6.037990570068359, 7.841070652008057, -0.16061770915985107, -2.5441722869873047, 3.096709728240967, 1.051771640777588, 
337, 1393426881, 95.07492065429688, -39.1815299987793, -53.722259521484375, 6.035109519958496, 7.821329116821289, -0.1681702435016632, -2.5875370502471924, 3.0318801403045654, 1.0872218608856201, 
338, 1393435214, 94.95825958251953, -39.17674255371094, -53.6497802734375, 6.022801399230957, 7.803083896636963, -0.18078483641147614, -2.400655746459961, 3.1187379360198975, 1.1133226156234741, 
339, 1393443547, 94.90020751953125, -39.183773040771484, -53.60962677001953, 6.051257133483887, 7.82110595703125, -0.17518772184848785, -2.292102575302124, 2.9951491355895996, 1.0010043382644653, 
340, 1393451880, 94.78556060791016, -39.17814636230469, -53.54277038574219, 6.043867588043213, 7.8266072273254395, -0.16841676831245422, -2.289156913757324, 2.968151807785034, 1.0526680946350098, 
341, 1393460213, 94.7298583984375, -39.185726165771484, -53.50537872314453, 6.039147853851318, 7.821806907653809, -0.18897929787635803, -2.2036056518554688, 2.7410049438476562, 1.1066886186599731, 
342, 1393468546, 94.6179428100586, -39.17966842651367, -53.44028854370117, 6.017632484436035, 7.806768894195557, -0.15548907220363617, -2.070321559906006, 2.864516496658325, 1.0413464307785034, 
343, 1393476879, 94.56254577636719, -39.18672561645508, -53.401058197021484, 6.035130977630615, 7.800132751464844, -0.1995074450969696, -2.0097696781158447, 2.898852586746216, 1.0426145792007446, 
344, 1393485212, 94.45365905761719, -39.18061065673828, -53.339351654052734, 6.023688793182373, 7.80062198638916, -0.16950926184654236, -1.823720932006836, 2.7521729469299316, 1.0741841793060303, 
345, 1393493545, 94.40234375, -39.18793869018555, -53.30266189575195, 6.038450717926025, 7.819155216217041, -0.17687971889972687, -1.6950860023498535, 2.6603968143463135, 1.1099417209625244, 
346, 1393501878, 94.29696655273438, -39.18244552612305, -53.23900604248047, 6.0327348709106445, 7.799318790435791, -0.1762523353099823, -1.5932183265686035, 2.5628068447113037, 1.1834545135498047, 
347, 1393510211, 94.2481918334961, -39.189815521240234, -53.20206832885742, 6.048433303833008, 7.814826488494873, -0.1687636822462082, -1.3593730926513672, 2.672384262084961, 1.1287938356399536, 
348, 1393518544, 94.146728515625, -39.18336868286133, -53.140113830566406, 6.053028583526611, 7.816657066345215, -0.20086856186389923, -1.2407407760620117, 2.453664541244507, 1.1015914678573608, 
349, 1393526877, 94.1012954711914, -39.18986511230469, -53.10576248168945, 6.046844005584717, 7.804245471954346, -0.18280355632305145, -1.1398975849151611, 2.415217399597168, 1.056510329246521, 
350, 1393535210, 94.00324249267578, -39.1839485168457, -53.046844482421875, 6.021729946136475, 7.819667339324951, -0.1799679398536682, -0.9860840439796448, 2.313631296157837, 1.2008978128433228, 
351, 1393543543, 93.96258544921875, -39.190486907958984, -53.01620101928711, 6.0152788162231445, 7.786379337310791, -0.20416560769081116, -0.8318607807159424, 2.0658392906188965, 1.0973395109176636, 
352, 1393551876, 93.86875915527344, -39.18445587158203, -52.95814895629883, 6.012811660766602, 7.812820911407471, -0.20577003061771393, -0.7301209568977356, 2.055081367492676, 1.2245397567749023, 
353, 1393560209, 93.83128356933594, -39.190792083740234, -52.92841720581055, 5.995166301727295, 7.793865203857422, -0.19481106102466583, -0.5089932084083557, 1.9705288410186768, 1.0914993286132812, 
354, 1393568542, 93.74251556396484, -39.184059143066406, -52.869781494140625, 6.002760887145996, 7.793882369995117, -0.2378726601600647, -0.4536152780056, 1.7026805877685547, 1.17958664894104, 
355, 1393576875, 93.70950317382812, -39.19038772583008, -52.8434944152832, 6.004701137542725, 7.8048176765441895, -0.241715207695961, -0.2239580601453781, 1.6375948190689087, 1.1236964464187622, 
356, 1393585208, 93.62506103515625, -39.18246841430664, -52.7927360534668, 5.998441696166992, 7.788532257080078, -0.25544971227645874, -0.15154661238193512, 1.4850876331329346, 1.082764983177185, 
357, 1393593541, 93.59719848632812, -39.1888427734375, -52.7707405090332, 6.006883144378662, 7.791492462158203, -0.23872412741184235, 0.08370732516050339, 1.2369627952575684, 1.164064645767212, 
358, 1393601874, 93.51972961425781, -39.18074035644531, -52.724830627441406, 6.009003639221191, 7.799731731414795, -0.24397672712802887, 0.3142610490322113, 1.103999137878418, 1.105715274810791, 
359, 1393610207, 93.49649047851562, -39.18641662597656, -52.70614242553711, 5.995505332946777, 7.8025288581848145, -0.24838927388191223, 0.4035266041755676, 0.9150941371917725, 1.10843026638031, 
360, 1393618540, 93.42378234863281, -39.178619384765625, -52.66351318359375, 5.998487949371338, 7.787013053894043, -0.23457713425159454, 0.5164598226547241, 0.7194526195526123, 1.1783828735351562, 
361, 1393626873, 93.40570831298828, -39.184295654296875, -52.650177001953125, 6.005520343780518, 7.782106876373291, -0.2548340857028961, 0.6283428072929382, 0.4114926755428314, 1.1458783149719238, 
362, 1393635206, 93.33789825439453, -39.17634582519531, -52.61079025268555, 6.006421089172363, 7.793544769287109, -0.24792468547821045, 0.8497267365455627, 0.476962685585022, 1.1913691759109497, 
363, 1393643539, 93.32389831542969, -39.18142318725586, -52.59877014160156, 6.001886367797852, 7.792721271514893, -0.22754594683647156, 1.0317158699035645, 0.2773253321647644, 1.0861461162567139, 
364, 1393651872, 93.26148223876953, -39.17310333251953, -52.56355285644531, 6.02931022644043, 7.786556243896484, -0.21668823063373566, 1.182660460472107, 0.15652859210968018, 1.17974054813385, 
365, 1393660205, 93.25221252441406, -39.17886734008789, -52.55567169189453, 6.0080156326293945, 7.772607326507568, -0.2321263998746872, 1.2978733777999878, -0.10618381947278976, 1.1976960897445679, 
366, 1393668538, 93.19446563720703, -39.17041778564453, -52.52155303955078, 6.013561725616455, 7.786985874176025, -0.24032412469387054, 1.478632926940918, -0.10070236772298813, 1.1806368827819824, 
367, 1393676871, 93.19081115722656, -39.17536544799805, -52.51753616333008, 6.0188822746276855, 7.794792175292969, -0.24402809143066406, 1.6892586946487427, -0.4798186719417572, 1.1275641918182373, 
368, 1393685204, 93.13992309570312, -39.16584777832031, -52.487693786621094, 6.028472423553467, 7.795732498168945, -0.232458233833313, 1.834645390510559, -0.6121162176132202, 1.0839945077896118, 
369, 1393693537, 93.14089965820312, -39.1717529296875, -52.48599624633789, 6.023805141448975, 7.789794445037842, -0.23355191946029663, 2.080490827560425, -0.6962845325469971, 1.2598873376846313, 
370, 1393701870, 93.09561157226562, -39.163124084472656, -52.46420669555664, 6.025602340698242, 7.785805702209473, -0.2528003752231598, 2.288196563720703, -0.8017897009849548, 1.228228211402893, 
371, 1393710203, 93.10218048095703, -39.16971969604492, -52.46589660644531, 6.04154109954834, 7.790200710296631, -0.21828973293304443, 2.511911153793335, -1.0086758136749268, 1.3660072088241577, 
372, 1393718536, 93.06269836425781, -39.16143035888672, -52.444705963134766, 6.027249813079834, 7.776909828186035, -0.22238755226135254, 2.629992961883545, -1.167022943496704, 1.2779710292816162, 
373, 1393726869, 93.073486328125, -39.16731262207031, -52.449283599853516, 6.024641990661621, 7.784046649932861, -0.21245457231998444, 2.807755947113037, -1.2899969816207886, 1.2999993562698364, 
374, 1393735202, 93.04026794433594, -39.16001892089844, -52.43116760253906, 6.0098795890808105, 7.800283432006836, -0.22941084206104279, 3.0591847896575928, -1.4863044023513794, 1.4194639921188354, 
375, 1393743535, 93.05712890625, -39.16486358642578, -52.43909454345703, 6.010768413543701, 7.7886738777160645, -0.2612813115119934, 3.293452501296997, -1.61440110206604, 1.1959798336029053, 
376, 1393751868, 93.03028106689453, -39.15671920776367, -52.42485809326172, 6.017541885375977, 7.7825927734375, -0.20799517631530762, 3.5628890991210938, -1.7481844425201416, 1.3406747579574585, 
377, 1393760201, 93.05350494384766, -39.16242218017578, -52.436729431152344, 6.027137279510498, 7.775930404663086, -0.19913223385810852, 3.768366575241089, -1.9794808626174927, 1.3233338594436646, 
378, 1393768534, 93.03242492675781, -39.15415573120117, -52.424537658691406, 6.021231174468994, 7.809563636779785, -0.2420775145292282, 4.042131423950195, -1.9466180801391602, 1.3397270441055298, 
379, 1393776867, 93.06046295166016, -39.15958023071289, -52.43854522705078, 6.005349636077881, 7.8086323738098145, -0.2319488376379013, 4.197174549102783, -2.1875455379486084, 1.3054550886154175, 
380, 1393785200, 93.04535675048828, -39.15073013305664, -52.435935974121094, 6.012048244476318, 7.80862283706665, -0.21941502392292023, 4.372837066650391, -2.357956886291504, 1.3137028217315674, 
381, 1393793533, 93.07838439941406, -39.156883239746094, -52.45338821411133, 5.9969000816345215, 7.802065372467041, -0.22021250426769257, 4.548140048980713, -2.5003974437713623, 1.4150840044021606, 
382, 1393801866, 93.06965637207031, -39.14818572998047, -52.450740814208984, 6.013168811798096, 7.792112350463867, -0.21846655011177063, 4.9154229164123535, -2.5681984424591064, 1.3393172025680542, 
383, 1393810199, 93.10811614990234, -39.15311813354492, -52.469993591308594, 6.008055210113525, 7.797769069671631, -0.22123877704143524, 5.077356338500977, -2.6830015182495117, 1.2822998762130737, 
384, 1393818532, 93.10494232177734, -39.14320755004883, -52.46919631958008, 6.0203328132629395, 7.809545040130615, -0.24615472555160522, 5.309434413909912, -2.8463821411132812, 1.2087230682373047, 
385, 1393826865, 93.14991760253906, -39.14839172363281, -52.49357223510742, 6.009829521179199, 7.808982849121094, -0.21436630189418793, 5.480152606964111, -3.1600279808044434, 1.3471678495407104, 
386, 1393835198, 93.1517333984375, -39.13898849487305, -52.49700927734375, 6.01249885559082, 7.811630725860596, -0.2116120606660843, 5.698270797729492, -3.046262741088867, 1.2904963493347168, 
387, 1393843531, 93.20015716552734, -39.144081115722656, -52.52375793457031, 6.0068182945251465, 7.820728302001953, -0.22749283909797668, 5.728214263916016, -3.386317253112793, 1.353097677230835, 
388, 1393851864, 93.20829772949219, -39.135337829589844, -52.53140640258789, 5.996213436126709, 7.800745010375977, -0.2310243546962738, 6.036147594451904, -3.4991989135742188, 1.3972821235656738, 
389, 1393860197, 93.26226806640625, -39.14079284667969, -52.56085205078125, 6.00215482711792, 7.788193702697754, -0.2191532552242279, 6.197070121765137, -3.638476848602295, 1.4184523820877075, 
390, 1393868530, 93.2751235961914, -39.13212966918945, -52.572818756103516, 6.008958339691162, 7.7907514572143555, -0.236047625541687, 6.310937881469727, -3.7980406284332275, 1.4335520267486572, 
391, 1393876863, 93.33260345458984, -39.13677215576172, -52.60503005981445, 6.001002788543701, 7.815850734710693, -0.2280300259590149, 6.4223856925964355, -3.9046216011047363, 1.3433387279510498, 
392, 1393885196, 93.34964752197266, -39.126705169677734, -52.619293212890625, 6.013408184051514, 7.789768218994141, -0.23745332658290863, 6.528045177459717, -4.107589244842529, 1.278765320777893, 
393, 1393893529, 93.4129638671875, -39.130496978759766, -52.65612030029297, 6.010233402252197, 7.799376487731934, -0.222293421626091, 6.78518533706665, -4.343341827392578, 1.2770233154296875, 
394, 1393901862, 93.4350357055664, -39.120296478271484, -52.6751708984375, 6.009267807006836, 7.793357849121094, -0.21019898355007172, 6.872811317443848, -4.37290096282959, 1.2977707386016846, 
395, 1393910195, 93.50151062011719, -39.124507904052734, -52.715240478515625, 6.029682159423828, 7.792154312133789, -0.21458813548088074, 6.928317070007324, -4.641977787017822, 1.353942632675171, 
396, 1393918528, 93.52771759033203, -39.11518096923828, -52.7363395690918, 6.032120227813721, 7.812219142913818, -0.2118156999349594, 7.147140026092529, -4.599023342132568, 1.408373236656189, 
397, 1393926861, 93.59703063964844, -39.1197624206543, -52.77750778198242, 6.028886318206787, 7.7840070724487305, -0.209489107131958, 7.197088241577148, -4.743794918060303, 1.4169282913208008, 
398, 1393935194, 93.62522888183594, -39.10981750488281, -52.80098342895508, 6.028767108917236, 7.801061153411865, -0.21393759548664093, 7.196165084838867, -4.796304225921631, 1.3529183864593506, 
399, 1393943527, 93.69815826416016, -39.11410903930664, -52.84416198730469, 6.029861927032471, 7.792797565460205, -0.2233034074306488, 7.489091396331787, -4.936004161834717, 1.406657099723816, 
400, 1393951860, 93.73152160644531, -39.104854583740234, -52.877052307128906, 6.045896053314209, 7.7922163009643555, -0.17017079889774323, 7.4900641441345215, -5.151215076446533, 1.487034559249878, 
401, 1393960193, 93.80760955810547, -39.10935974121094, -52.92377853393555, 6.053900241851807, 7.7937703132629395, -0.17536014318466187, 7.61431884765625, -5.260537147521973, 1.4660052061080933, 
402, 1393968526, 93.84526824951172, -39.0994987487793, -52.954383850097656, 6.040912628173828, 7.817691802978516, -0.1882665753364563, 7.809449672698975, -5.371267795562744, 1.407400131225586, 
403, 1393976859, 93.9238052368164, -39.10371017456055, -53.002567291259766, 6.031042575836182, 7.813204765319824, -0.202018141746521, 7.805990219116211, -5.403361797332764, 1.452224850654602, 
404, 1393985192, 93.96296691894531, -39.09406280517578, -53.03493881225586, 6.025111198425293, 7.804840564727783, -0.1876203864812851, 7.9468159675598145, -5.391885757446289, 1.4416203498840332, 
405, 1393993525, 94.04278564453125, -39.098846435546875, -53.08424377441406, 6.039368152618408, 7.802238464355469, -0.2023957073688507, 7.888363838195801, -5.50540828704834, 1.5416951179504395, 
406, 1394001858, 94.0849380493164, -39.08970642089844, -53.11715316772461, 6.040515422821045, 7.808811664581299, -0.18612390756607056, 8.105612754821777, -5.6003737449646, 1.520064115524292, 
407, 1394010191, 94.16751098632812, -39.0943603515625, -53.167335510253906, 6.023990631103516, 7.841845989227295, -0.16589389741420746, 8.162334442138672, -5.592137813568115, 1.5449224710464478, 
408, 1394018524, 94.21163177490234, -39.084224700927734, -53.202880859375, 6.030563831329346, 7.822033405303955, -0.1674521565437317, 8.288383483886719, -5.656353950500488, 1.4186700582504272, 
409, 1394026857, 94.29578399658203, -39.08820343017578, -53.25293731689453, 6.036930084228516, 7.810575008392334, -0.2009371966123581, 8.372371673583984, -5.582815170288086, 1.47850501537323, 
410, 1394035190, 94.34236907958984, -39.078330993652344, -53.2907829284668, 6.027387619018555, 7.823859214782715, -0.16676835715770721, 8.464083671569824, -5.78402853012085, 1.470295786857605, 
411, 1394043523, 94.42829132080078, -39.08251953125, -53.34215545654297, 6.000238418579102, 7.8137640953063965, -0.14282944798469543, 8.49566650390625, -5.701831817626953, 1.5299255847930908, 
412, 1394051856, 94.47554016113281, -39.072288513183594, -53.379600524902344, 6.025883197784424, 7.817378997802734, -0.16104352474212646, 8.601875305175781, -5.710322380065918, 1.428557276725769, 
413, 1394060189, 94.562744140625, -39.07632064819336, -53.43053436279297, 6.028497695922852, 7.804298400878906, -0.194538876414299, 8.696444511413574, -5.666779041290283, 1.5204100608825684, 
414, 1394068522, 94.61238861083984, -39.06623077392578, -53.4670295715332, 6.015138626098633, 7.820631504058838, -0.1662728488445282, 8.770135879516602, -5.835448265075684, 1.455580234527588, 
415, 1394076855, 94.70085906982422, -39.069400787353516, -53.51897430419922, 6.019839286804199, 7.802475452423096, -0.17067331075668335, 8.779510498046875, -5.7714128494262695, 1.4436954259872437, 
416, 1394085188, 94.7510757446289, -39.058570861816406, -53.557918548583984, 6.020759582519531, 7.817630767822266, -0.18723616003990173, 8.805867195129395, -5.883654594421387, 1.3803257942199707, 
417, 1394093521, 94.84000396728516, -39.06136703491211, -53.60993576049805, 6.0064496994018555, 7.843661785125732, -0.15945081412792206, 8.84239387512207, -5.777688503265381, 1.4153403043746948, 
418, 1394101854, 94.89037322998047, -39.05033493041992, -53.65004348754883, 6.01676082611084, 7.833278179168701, -0.16987040638923645, 8.811222076416016, -5.90099573135376, 1.3678258657455444, 
419, 1394110187, 94.98118591308594, -39.052886962890625, -53.704795837402344, 6.018667221069336, 7.847146034240723, -0.17552824318408966, 8.875718116760254, -6.036827564239502, 1.4225122928619385, 
420, 1394118520, 95.03362274169922, -39.04240798950195, -53.74584197998047, 6.032578945159912, 7.833681583404541, -0.165190190076828, 8.941445350646973, -6.028068542480469, 1.4548633098602295, 
421, 1394126853, 95.12397003173828, -39.04534149169922, -53.79966354370117, 6.0111613273620605, 7.823158264160156, -0.1609942615032196, 8.900589942932129, -5.948099613189697, 1.4799394607543945, 
422, 1394135186, 95.17346954345703, -39.03388214111328, -53.8389892578125, 6.034554958343506, 7.825221538543701, -0.16244570910930634, 8.746698379516602, -5.855324745178223, 1.3260489702224731, 
423, 1394143519, 95.26278686523438, -39.0361213684082, -53.8927116394043, 6.031795978546143, 7.811248779296875, -0.1515314131975174, 8.794930458068848, -5.9440531730651855, 1.4114214181900024, 
424, 1394151852, 95.31333923339844, -39.02577590942383, -53.93116760253906, 6.041781425476074, 7.835195541381836, -0.1601652055978775, 8.83721923828125, -5.89515495300293, 1.4684128761291504, 
425, 1394160185, 95.40229797363281, -39.02775573730469, -53.984169006347656, 6.042347431182861, 7.814355850219727, -0.1294255256652832, 8.81631851196289, -5.883475303649902, 1.3925437927246094, 
426, 1394168518, 95.45025634765625, -39.01812744140625, -54.02370071411133, 6.064333438873291, 7.798988342285156, -0.14972159266471863, 8.595727920532227, -5.8121657371521, 1.5538878440856934, 
427, 1394176851, 95.53585815429688, -39.019935607910156, -54.075008392333984, 6.056567192077637, 7.792296409606934, -0.14119677245616913, 8.555181503295898, -5.726305961608887, 1.3680307865142822, 
428, 1394185184, 95.58323669433594, -39.00862503051758, -54.113685607910156, 6.0460429191589355, 7.807955741882324, -0.14321459829807281, 8.596549034118652, -5.762038707733154, 1.3486409187316895, 
429, 1394193517, 95.66846466064453, -39.010414123535156, -54.165096282958984, 6.046114444732666, 7.796727657318115, -0.14431211352348328, 8.511150360107422, -5.736807823181152, 1.3839116096496582, 
430, 1394201850, 95.71259307861328, -39.000244140625, -54.20257568359375, 6.053136348724365, 7.825769424438477, -0.13240021467208862, 8.344094276428223, -5.593009948730469, 1.471179485321045, 
431, 1394210183, 95.79540252685547, -39.0029182434082, -54.252601623535156, 6.026915073394775, 7.8364176750183105, -0.10451783239841461, 8.34089183807373, -5.597645282745361, 1.4903898239135742, 
432, 1394218516, 95.83746337890625, -38.99324417114258, -54.29016876220703, 6.0366621017456055, 7.829637050628662, -0.10745842754840851, 8.148785591125488, -5.551334381103516, 1.525968074798584, 
433, 1394226849, 95.9167251586914, -38.99536895751953, -54.33807373046875, 6.050014495849609, 7.845887660980225, -0.13075628876686096, 8.083365440368652, -5.40743350982666, 1.4220510721206665, 
434, 1394235182, 95.95498657226562, -38.98492431640625, -54.37314224243164, 6.021914958953857, 7.831137657165527, -0.11478286236524582, 7.937801837921143, -5.285844326019287, 1.4097307920455933, 
435, 1394243515, 96.02979278564453, -38.986236572265625, -54.418338775634766, 6.0445075035095215, 7.809048175811768, -0.13776786625385284, 7.764009475708008, -5.16527795791626, 1.3097329139709473, 
436, 1394251848, 96.06519317626953, -38.97616958618164, -54.45286560058594, 6.032082557678223, 7.798667907714844, -0.09975443035364151, 7.740801811218262, -5.126061916351318, 1.4390591382980347, 
437, 1394260181, 96.1388931274414, -38.977821350097656, -54.49725341796875, 6.028919219970703, 7.80092191696167, -0.10721895843744278, 7.706913948059082, -5.086846828460693, 1.3571445941925049, 
438, 1394268514, 96.1719970703125, -38.96769332885742, -54.52863693237305, 6.052106857299805, 7.802402973175049, -0.11074339598417282, 7.56636905670166, -5.0293426513671875, 1.4183628559112549, 
439, 1394276847, 96.24065399169922, -38.970279693603516, -54.568416595458984, 6.042778015136719, 7.787782192230225, -0.12645189464092255, 7.46086311340332, -4.651379108428955, 1.4303758144378662, 
440, 1394285180, 96.26908874511719, -38.96009063720703, -54.594181060791016, 6.0417304039001465, 7.839832782745361, -0.10804726183414459, 7.32659387588501, -4.661931991577148, 1.3687222003936768, 
441, 1394293513, 96.33464050292969, -38.962337493896484, -54.632972717285156, 6.014787673950195, 7.837750434875488, -0.10859329253435135, 7.170526504516602, -4.565084457397461, 1.3929535150527954, 
442, 1394301846, 96.360595703125, -38.95276641845703, -54.65736770629883, 6.0216546058654785, 7.839608669281006, -0.09182827919721603, 7.242680549621582, -4.4314799308776855, 1.4154682159423828, 
443, 1394310179, 96.4220199584961, -38.954627990722656, -54.69224548339844, 6.008537292480469, 7.834849834442139, -0.09902019798755646, 6.983157157897949, -4.208226680755615, 1.3144201040267944, 
444, 1394318512, 96.44400787353516, -38.944244384765625, -54.71567153930664, 6.019617557525635, 7.849663734436035, -0.10453926026821136, 6.944761753082275, -4.250041961669922, 1.3006396293640137, 
445, 1394326845, 96.50233459472656, -38.94615173339844, -54.74802017211914, 6.030179500579834, 7.836909770965576, -0.1066175177693367, 6.816166877746582, -3.974714994430542, 1.302573800086975, 
446, 1394335178, 96.51892852783203, -38.93629837036133, -54.766231536865234, 6.018720626831055, 7.841452598571777, -0.10629474371671677, 6.560805320739746, -3.9559268951416016, 1.3294557332992554, 
447, 1394343511, 96.57262420654297, -38.93832015991211, -54.7958869934082, 6.027246475219727, 7.839685916900635, -0.10245034843683243, 6.4727935791015625, -3.7249627113342285, 1.294466495513916, 
448, 1394351844, 96.5846176147461, -38.92753982543945, -54.81245040893555, 6.025362968444824, 7.824446201324463, -0.08069706708192825, 6.321375846862793, -3.6221859455108643, 1.1800862550735474, 
449, 1394360177, 96.63488006591797, -38.930057525634766, -54.84100341796875, 6.009072303771973, 7.82711935043335, -0.1024523377418518, 6.152027130126953, -3.6156673431396484, 1.3474369049072266, 
450, 1394368510, 96.64309692382812, -38.91992950439453, -54.85432434082031, 6.030304908752441, 7.800486087799072, -0.0957120954990387, 6.066244602203369, -3.406526565551758, 1.2319934368133545, 
451, 1394376843, 96.68795776367188, -38.922210693359375, -54.87879943847656, 6.039852619171143, 7.801472187042236, -0.11642575263977051, 5.823319911956787, -3.2424933910369873, 1.2828378677368164, 
452, 1394385176, 96.68991088867188, -38.91264724731445, -54.88999938964844, 6.052201747894287, 7.819630146026611, -0.12874527275562286, 5.565396785736084, -3.1236557960510254, 1.2592343091964722, 
453, 1394393509, 96.72917175292969, -38.91386413574219, -54.91160583496094, 6.046551704406738, 7.817562103271484, -0.09993855655193329, 5.379194736480713, -2.9932925701141357, 1.1301512718200684, 
454, 1394401842, 96.72554779052734, -38.90483474731445, -54.92674255371094, 6.030284404754639, 7.8150715827941895, -0.0824471190571785, 5.1472063064575195, -2.840989828109741, 1.2845537662506104, 
455, 1394410175, 96.76097106933594, -38.90726089477539, -54.9466667175293, 6.045187950134277, 7.8075127601623535, -0.09684986621141434, 5.06264066696167, -2.815567970275879, 1.261872410774231, 
456, 1394418508, 96.75244903564453, -38.8986701965332, -54.951995849609375, 6.048699378967285, 7.830667972564697, -0.07753763347864151, 4.745075702667236, -2.646718978881836, 1.310206651687622, 
457, 1394426841, 96.78113555908203, -38.90118408203125, -54.96828842163086, 6.039007186889648, 7.829885959625244, -0.10044072568416595, 4.533758163452148, -2.4831976890563965, 1.2363351583480835, 
458, 1394435174, 96.767578125, -38.892337799072266, -54.96919250488281, 6.054652214050293, 7.8083415031433105, -0.09506180137395859, 4.4440693855285645, -2.305063247680664, 1.238934874534607, 
459, 1394443507, 96.79036712646484, -38.89533233642578, -54.980770111083984, 6.033904552459717, 7.815782070159912, -0.07579543441534042, 4.1924357414245605, -2.041364908218384, 1.245722770690918, 
460, 1394451840, 96.77118682861328, -38.88669967651367, -54.979156494140625, 6.025129318237305, 7.8061299324035645, -0.06731124222278595, 4.005182266235352, -2.055542469024658, 1.228240966796875, 
461, 1394460173, 96.78933715820312, -38.889923095703125, -54.99075698852539, 6.050830364227295, 7.808873176574707, -0.07369540631771088, 3.64108943939209, -2.040212392807007, 1.2764854431152344, 
462, 1394468506, 96.76305389404297, -38.88212203979492, -54.98648452758789, 6.054574966430664, 7.7912702560424805, -0.06243523210287094, 3.404951333999634, -1.7698026895523071, 1.2878838777542114, 
463, 1394476839, 96.77513122558594, -38.88616180419922, -54.99335861206055, 6.055078506469727, 7.794312477111816, -0.08038307726383209, 3.280850648880005, -1.5952672958374023, 1.3261513710021973, 
464, 1394485172, 96.74382781982422, -38.87809371948242, -54.984535217285156, 6.049546718597412, 7.807589530944824, -0.07598899304866791, 3.106213092803955, -1.4340771436691284, 1.2085310220718384, 
465, 1394493505, 96.7493896484375, -38.88195037841797, -54.9877815246582, 6.054563045501709, 7.791996955871582, -0.06999145448207855, 2.782602548599243, -1.2629995346069336, 1.2668545246124268, 
466, 1394501838, 96.7117919921875, -38.87482833862305, -54.977943420410156, 6.029702186584473, 7.804152488708496, -0.07404603064060211, 2.6102442741394043, -1.133980631828308, 1.282658576965332, 
467, 1394510171, 96.71146392822266, -38.879249572753906, -54.97661209106445, 6.043595790863037, 7.8067755699157715, -0.08160927146673203, 2.4332497119903564, -0.831809401512146, 1.2890875339508057, 
468, 1394518504, 96.66741943359375, -38.87255859375, -54.96173095703125, 6.033637523651123, 7.80741548538208, -0.07444123923778534, 2.1592800617218018, -0.7604738473892212, 1.2860652208328247, 
469, 1394526837, 96.66175842285156, -38.877647399902344, -54.957645416259766, 6.034566402435303, 7.800045967102051, -0.09305622428655624, 2.008873224258423, -0.568956196308136, 1.341853141784668, 
470, 1394535170, 96.61199951171875, -38.87110137939453, -54.9385986328125, 6.038923740386963, 7.798266410827637, -0.10384775698184967, 1.778242588043213, -0.41516831517219543, 1.2619620561599731, 
471, 1394543503, 96.60148620605469, -38.876075744628906, -54.930320739746094, 6.028214454650879, 7.8123779296875, -0.08162423968315125, 1.7518342733383179, -0.18538302183151245, 1.284528136253357, 
472, 1394551836, 96.54690551757812, -38.86985778808594, -54.906768798828125, 6.004034996032715, 7.844139575958252, -0.08119017630815506, 1.45294189453125, -0.1280839890241623, 1.2667264938354492, 
473, 1394560169, 96.5301513671875, -38.8744010925293, -54.89556884765625, 6.035043716430664, 7.822495460510254, -0.11430928111076355, 1.232736349105835, 0.0780721977353096, 1.2089920043945312, 
474, 1394568502, 96.4700698852539, -38.868064880371094, -54.867820739746094, 6.048327922821045, 7.822897434234619, -0.07928937673568726, 1.1528455018997192, 0.29556262493133545, 1.2084540128707886, 
475, 1394576835, 96.44979095458984, -38.873226165771484, -54.85443878173828, 6.021899700164795, 7.8241729736328125, -0.11596188694238663, 0.9835866093635559, 0.285675585269928, 1.2640881538391113, 
476, 1394585168, 96.38591766357422, -38.86717224121094, -54.82650375366211, 6.016098976135254, 7.84295654296875, -0.10194231569766998, 0.8007009625434875, 0.4080604016780853, 1.224923849105835, 
477, 1394593501, 96.36124420166016, -38.87303161621094, -54.8098258972168, 6.027178764343262, 7.843593120574951, -0.10054036229848862, 0.7176083922386169, 0.598604679107666, 1.319414734840393, 
478, 1394601834, 96.29393768310547, -38.86716842651367, -54.781883239746094, 6.0288238525390625, 7.84420108795166, -0.10132002085447311, 0.48100972175598145, 0.5028842687606812, 1.2432637214660645, 
479, 1394610167, 96.26451110839844, -38.871742248535156, -54.762664794921875, 6.0161848068237305, 7.830782413482666, -0.11523229628801346, 0.3494166135787964, 0.8175167441368103, 1.145148515701294, 
480, 1394618500, 96.1928939819336, -38.86576461791992, -54.730369567871094, 6.017536640167236, 7.854193687438965, -0.1367480456829071, 0.2807832360267639, 0.8816931843757629, 1.1925475597381592, 
481, 1394626833, 96.15988159179688, -38.87086868286133, -54.70914077758789, 6.047943115234375, 7.833493232727051, -0.12381570786237717, 0.080787293612957, 1.0054099559783936, 1.1941356658935547, 
482, 1394635166, 96.08293151855469, -38.865386962890625, -54.67308807373047, 6.023737907409668, 7.832188129425049, -0.14686773717403412, -0.12457483261823654, 1.1758984327316284, 1.2329156398773193, 
483, 1394643499, 96.0453109741211, -38.871185302734375, -54.64925765991211, 6.011954307556152, 7.812424182891846, -0.11379701644182205, -0.26675945520401, 1.25722336769104, 1.259554386138916, 
484, 1394651832, 95.96504974365234, -38.86524963378906, -54.60911178588867, 6.0345635414123535, 7.804232597351074, -0.14594483375549316, -0.4156549572944641, 1.2837084531784058, 1.171236515045166, 
485, 1394660165, 95.92329406738281, -38.8704948425293, -54.581932067871094, 6.00994348526001, 7.813895225524902, -0.12048109620809555, -0.502794623374939, 1.5546815395355225, 1.1706217527389526, 
486, 1394668498, 95.8388900756836, -38.86423873901367, -54.539451599121094, 6.019358158111572, 7.8022990226745605, -0.13405326008796692, -0.6299437284469604, 1.6277590990066528, 1.1027697324752808, 
487, 1394676831, 95.79448699951172, -38.86929702758789, -54.510414123535156, 6.0306220054626465, 7.80574369430542, -0.11354470998048782, -0.6728987097740173, 1.7225315570831299, 1.1393979787826538, 
488, 1394685164, 95.70674133300781, -38.863529205322266, -54.46247863769531, 6.029702186584473, 7.824575424194336, -0.11622711271047592, -0.8604974150657654, 1.8441736698150635, 1.1536394357681274, 
489, 1394693497, 95.657958984375, -38.868614196777344, -54.431190490722656, 6.012487888336182, 7.832930564880371, -0.10578971356153488, -1.0174999237060547, 1.9245127439498901, 1.1298823356628418, 
490, 1394701830, 95.566650390625, -38.863380432128906, -54.38332748413086, 6.03342866897583, 7.825926780700684, -0.11955983936786652, -1.1242982149124146, 2.057053327560425, 1.2037664651870728, 
491, 1394710163, 95.51478576660156, -38.868099212646484, -54.350257873535156, 6.035331726074219, 7.8159074783325195, -0.1351560801267624, -1.244992733001709, 2.088226079940796, 1.0846859216690063, 
492, 1394718496, 95.42133331298828, -38.86212921142578, -54.29917907714844, 6.02202844619751, 7.820905685424805, -0.1352207511663437, -1.3573368787765503, 2.078594923019409, 1.1231074333190918, 
493, 1394726829, 95.36617279052734, -38.867122650146484, -54.26345443725586, 6.057782173156738, 7.822514057159424, -0.1593489795923233, -1.4346150159835815, 2.331817865371704, 1.1043834686279297, 
494, 1394735162, 95.26766967773438, -38.861446380615234, -54.215187072753906, 6.046667098999023, 7.816082954406738, -0.14487364888191223, -1.6777966022491455, 2.4480552673339844, 1.1328152418136597, 
495, 1394743495, 95.2085189819336, -38.86591339111328, -54.17738723754883, 6.037848472595215, 7.820819854736328, -0.1370546966791153, -1.7420114278793335, 2.5192370414733887, 1.0346357822418213, 
496, 1394751828, 95.10906219482422, -38.85984420776367, -54.12657928466797, 6.028049468994141, 7.807645320892334, -0.15293648838996887, -1.716986060142517, 2.5533294677734375, 1.0882463455200195, 
497, 1394760161, 95.04885864257812, -38.86565017700195, -54.088340759277344, 6.03842830657959, 7.814367294311523, -0.1253698617219925, -1.8248481750488281, 2.5703630447387695, 1.2040483951568604, 
498, 1394768494, 94.9454574584961, -38.860267639160156, -54.030487060546875, 6.061647415161133, 7.813354015350342, -0.15675826370716095, -2.017569065093994, 2.7882373332977295, 1.1659599542617798, 
499, 1394776827, 94.88314819335938, -38.8651237487793, -53.98974609375, 6.042126655578613, 7.812718391418457, -0.15672241151332855, -1.885041356086731, 2.7861886024475098, 1.0849167108535767, 
500, 1394785160, 94.78047180175781, -38.85862350463867, -53.942039489746094, 6.044040679931641, 7.8280463218688965, -0.16221049427986145, -1.955864429473877, 2.7760708332061768, 1.045982837677002, 
501, 1394793493, 94.71560668945312, -38.86396789550781, -53.89980697631836, 6.0347490310668945, 7.821702003479004, -0.16524353623390198, -2.0613694190979004, 2.9365437030792236, 1.1443159580230713, 
502, 1394801826, 94.60967254638672, -38.85770034790039, -53.8410758972168, 6.024491786956787, 7.814148426055908, -0.17416678369045258, -2.213901996612549, 2.959212064743042, 1.0730314254760742, 
503, 1394810159, 94.54364776611328, -38.86320877075195, -53.79805374145508, 6.056689739227295, 7.841363906860352, -0.1196797788143158, -2.138878107070923, 3.0038323402404785, 1.175232172012329, 
504, 1394818492, 94.43724060058594, -38.8575439453125, -53.74448013305664, 6.047232627868652, 7.8318681716918945, -0.1701168417930603, -2.1924118995666504, 3.0912024974823, 1.1522563695907593, 
505, 1394826825, 94.37042999267578, -38.86173629760742, -53.700931549072266, 6.029482841491699, 7.820613861083984, -0.15945963561534882, -2.1808342933654785, 3.04266357421875, 1.0269259214401245, 
506, 1394835158, 94.26464080810547, -38.855384826660156, -53.6426887512207, 6.035185813903809, 7.80891752243042, -0.13688986003398895, -2.11720871925354, 3.1167399883270264, 1.0846346616744995, 
507, 1394843491, 94.19703674316406, -38.860042572021484, -53.598297119140625, 6.042264461517334, 7.832909107208252, -0.1715088039636612, -2.2059361934661865, 3.1186866760253906, 1.0932412147521973, 
508, 1394851824, 94.09121704101562, -38.853912353515625, -53.538795471191406, 6.043769359588623, 7.8136982917785645, -0.16338860988616943, -2.219383716583252, 3.0266034603118896, 1.1326613426208496, 
509, 1394860157, 94.02383422851562, -38.8575325012207, -53.494258880615234, 6.026558876037598, 7.812618732452393, -0.1575123369693756, -2.160982847213745, 3.1202232837677, 0.9826643466949463, 
510, 1394868490, 93.91777038574219, -38.85034942626953, -53.436031341552734, 6.015989780426025, 7.819615840911865, -0.18332138657569885, -2.152709722518921, 3.1802632808685303, 1.0141699314117432, 
511, 1394876823, 93.85027313232422, -38.854801177978516, -53.39158630371094, 6.02998685836792, 7.807812690734863, -0.18652433156967163, -2.1720995903015137, 3.1157922744750977, 1.0983896255493164, 
512, 1394885156, 93.74630737304688, -38.84659957885742, -53.333351135253906, 6.027259826660156, 7.807801723480225, -0.1665259152650833, -2.1407992839813232, 2.9157965183258057, 0.9235467910766602, 
513, 1394893489, 93.68192291259766, -38.850364685058594, -53.291500091552734, 6.017731189727783, 7.839001178741455, -0.20838771760463715, -1.9894706010818481, 2.8667967319488525, 1.0501067638397217, 
514, 1394901822, 93.578125, -38.843299865722656, -53.23189163208008, 6.019913673400879, 7.81931209564209, -0.19417409598827362, -2.1124186515808105, 2.9729161262512207, 1.0687025785446167, 
515, 1394910155, 93.51294708251953, -38.84705352783203, -53.18925094604492, 6.015781879425049, 7.800361156463623, -0.1675480455160141, -2.016749382019043, 2.9371328353881836, 1.0593791007995605, 
516, 1394918488, 93.41085815429688, -38.83937454223633, -53.12726593017578, 6.022985935211182, 7.836795806884766, -0.1635015308856964, -2.031451940536499, 2.864875078201294, 1.0082530975341797, 
517, 1394926821, 93.34598541259766, -38.842247009277344, -53.08586120605469, 6.035270690917969, 7.829343795776367, -0.18702667951583862, -2.066108465194702, 2.8058605194091797, 0.974903404712677, 
518, 1394935154, 93.24642181396484, -38.835044860839844, -53.03203582763672, 6.017885208129883, 7.830179214477539, -0.20300626754760742, -1.8618605136871338, 2.7574751377105713, 1.1016428470611572, 
519, 1394943487, 93.1832275390625, -38.838443756103516, -52.99097442626953, 6.0207295417785645, 7.803457260131836, -0.20922091603279114, -1.8817882537841797, 2.7787346839904785, 1.0537183284759521, 
520, 1394951820, 93.08546447753906, -38.8310432434082, -52.936710357666016, 6.010621547698975, 7.8151326179504395, -0.16817855834960938, -1.746212124824524, 2.6846282482147217, 1.0959564447402954, 
521, 1394960153, 93.02371978759766, -38.833702087402344, -52.89586639404297, 6.03987979888916, 7.795914173126221, -0.1952558010816574, -1.7163716554641724, 2.752915859222412, 0.9810765385627747, 
522, 1394968486, 92.92727661132812, -38.826412200927734, -52.840755462646484, 6.022253513336182, 7.785882949829102, -0.167002871632576, -1.6569976806640625, 2.6482560634613037, 1.1186505556106567, 
523, 1394976819, 92.86808776855469, -38.83014678955078, -52.80244064331055, 6.025782585144043, 7.769810199737549, -0.19727788865566254, -1.594498872756958, 2.519109010696411, 1.131534457206726, 
524, 1394985152, 92.7755126953125, -38.8221321105957, -52.752418518066406, 6.0442376136779785, 7.771422863006592, -0.1922135055065155, -1.449778437614441, 2.3815348148345947, 1.0578422546386719, 
525, 1394993485, 92.71861267089844, -38.82578659057617, -52.71516799926758, 6.036298751831055, 7.765961170196533, -0.20143945515155792, -1.3929405212402344, 2.4211599826812744, 1.1440086364746094, 
526, 1395001818, 92.62738037109375, -38.817569732666016, -52.67311096191406, 6.028426647186279, 7.796927452087402, -0.21141034364700317, -1.4111266136169434, 2.2975966930389404, 1.0780006647109985, 
527, 1395010151, 92.57293701171875, -38.820343017578125, -52.63814926147461, 6.024685382843018, 7.790722370147705, -0.1790882647037506, -1.25582754611969, 2.2078189849853516, 1.0589436292648315, 
528, 1395018484, 92.48502349853516, -38.81250762939453, -52.585689544677734, 6.038250923156738, 7.803755283355713, -0.19800524413585663, -1.1544976234436035, 2.1708319187164307, 1.0942400693893433, 
529, 1395026817, 92.43159484863281, -38.815391540527344, -52.55058288574219, 6.024932384490967, 7.797682285308838, -0.1687507927417755, -1.126654863357544, 2.2093558311462402, 1.082764983177185, 
530, 1395035150, 92.34766387939453, -38.80699920654297, -52.50328063964844, 6.02625036239624, 7.7986063957214355, -0.1868080496788025, -0.9572679996490479, 1.8839014768600464, 1.0531805753707886, 
531, 1395043483, 92.29903411865234, -38.8108024597168, -52.471466064453125, 6.02734899520874, 7.797206401824951, -0.18596138060092926, -0.7881372570991516, 1.8991930484771729, 1.2138842344284058, 
532, 1395051816, 92.2168960571289, -38.80251693725586, -52.42524337768555, 6.034952163696289, 7.812562942504883, -0.1768466681241989, -0.7881628274917603, 1.888460636138916, 1.0777701139450073, 
533, 1395060149, 92.16954803466797, -38.80546569824219, -52.39492416381836, 6.032590389251709, 7.802640438079834, -0.23815104365348816, -0.7422108054161072, 1.7564704418182373, 1.1266931295394897, 
534, 1395068482, 92.09217834472656, -38.79736328125, -52.35570526123047, 6.032249927520752, 7.79985237121582, -0.17802423238754272, -0.48834818601608276, 1.6219958066940308, 1.134274959564209, 
535, 1395076815, 92.05103302001953, -38.80095291137695, -52.32793426513672, 5.992407321929932, 7.807680606842041, -0.19221846759319305, -0.17854401469230652, 1.5211780071258545, 1.2206206321716309, 
536, 1395085148, 91.97874450683594, -38.79276657104492, -52.288700103759766, 6.0212178230285645, 7.792631149291992, -0.19824044406414032, -0.1195031926035881, 1.3867545127868652, 1.1249772310256958, 
537, 1395093481, 91.93993377685547, -38.79545974731445, -52.263328552246094, 5.998462200164795, 7.828195571899414, -0.20305606722831726, -0.07442215085029602, 1.2889595031738281, 1.1298694610595703, 
538, 1395101814, 91.8713607788086, -38.78789520263672, -52.226234436035156, 5.99713659286499, 7.790218353271484, -0.21038657426834106, 0.049589160829782486, 1.106048345565796, 1.2007185220718384, 
539, 1395110147, 91.83702087402344, -38.79144287109375, -52.20366668701172, 6.008388042449951, 7.805754661560059, -0.22254639863967896, 0.2555531859397888, 1.0287188291549683, 1.2486169338226318, 
540, 1395118480, 91.77364349365234, -38.78413391113281, -52.1713981628418, 6.000820159912109, 7.818272113800049, -0.21659523248672485, 0.4115951657295227, 0.8522111773490906, 1.2654969692230225, 
541, 1395126813, 91.74420166015625, -38.787452697753906, -52.15158462524414, 5.9929094314575195, 7.8064985275268555, -0.22384822368621826, 0.644351601600647, 0.7687087655067444, 1.2364758253097534, 
542, 1395135146, 91.68592834472656, -38.779300689697266, -52.12099838256836, 5.996271133422852, 7.7760844230651855, -0.22628018260002136, 0.8192200660705566, 0.6635111570358276, 1.1703400611877441, 
543, 1395143479, 91.66183471679688, -38.781951904296875, -52.10526657104492, 5.9869513511657715, 7.808929920196533, -0.22429850697517395, 0.9871727228164673, 0.3816521167755127, 1.171825647354126, 
544, 1395151812, 91.60887145996094, -38.773685455322266, -52.076900482177734, 5.986664772033691, 7.781442165374756, -0.21057969331741333, 1.1413958072662354, 0.3368784189224243, 1.1555604934692383, 
545, 1395160145, 91.58960723876953, -38.776153564453125, -52.063621520996094, 5.988138198852539, 7.801092147827148, -0.21053394675254822, 1.3873565196990967, 0.150803804397583, 1.1603888273239136, 
546, 1395168478, 91.54306030273438, -38.76723098754883, -52.039093017578125, 5.998722553253174, 7.774834156036377, -0.21840950846672058, 1.5241749286651611, -0.07588216662406921, 1.0887843370437622, 
547, 1395176811, 91.52848052978516, -38.76930236816406, -52.029998779296875, 6.0230631828308105, 7.803612232208252, -0.20786437392234802, 1.6402586698532104, -0.24747192859649658, 1.1289472579956055, 
548, 1395185144, 91.48743438720703, -38.7608757019043, -52.006690979003906, 6.026566982269287, 7.801379680633545, -0.22121798992156982, 1.9517791271209717, -0.2980344295501709, 1.1443670988082886, 
549, 1395193477, 91.47722625732422, -38.76329040527344, -51.99928283691406, 6.019160270690918, 7.793514728546143, -0.2093980312347412, 2.042581558227539, -0.40620335936546326, 1.1779474020004272, 
550, 1395201810, 91.4404525756836, -38.75508117675781, -51.98263931274414, 6.025623798370361, 7.777495861053467, -0.2165422886610031, 2.1730988025665283, -0.5887175798416138, 1.190588116645813, 
551, 1395210143, 91.4350814819336, -38.757354736328125, -51.97804260253906, 6.02593994140625, 7.774669647216797, -0.2264774590730667, 2.4197893142700195, -0.6688132286071777, 1.1703271865844727, 
552, 1395218476, 91.40352630615234, -38.74940490722656, -51.963287353515625, 6.007989883422852, 7.80819034576416, -0.2278117537498474, 2.519864559173584, -0.870064377784729, 1.2186613082885742, 
553, 1395226809, 91.40418243408203, -38.75144577026367, -51.963890075683594, 6.021552562713623, 7.797041416168213, -0.24367274343967438, 2.755117893218994, -1.1572893857955933, 1.1560728549957275, 
554, 1395235142, 91.37899017333984, -38.74302673339844, -51.95419692993164, 6.019425868988037, 7.805632591247559, -0.2554604411125183, 2.914823293685913, -1.2583889961242676, 1.1700071096420288, 
555, 1395243475, 91.38363647460938, -38.74650192260742, -51.9567985534668, 6.0185651779174805, 7.787307262420654, -0.2607378363609314, 3.090639114379883, -1.3439404964447021, 1.3368068933486938, 
556, 1395251808, 91.3630142211914, -38.73834228515625, -51.953453063964844, 6.015952110290527, 7.769150257110596, -0.25201621651649475, 3.2163796424865723, -1.494500994682312, 1.2364246845245361, 
557, 1395260141, 91.37199401855469, -38.741573333740234, -51.958492279052734, 6.0320305824279785, 7.792688846588135, -0.23074005544185638, 3.4341769218444824, -1.5720605850219727, 1.3152908086776733, 
558, 1395268474, 91.3573989868164, -38.73354721069336, -51.95499038696289, 6.027437686920166, 7.791263580322266, -0.2388378530740738, 3.737091541290283, -1.6804604530334473, 1.2292016744613647, 
559, 1395276807, 91.3730697631836, -38.73660659790039, -51.96510314941406, 6.016058444976807, 7.770347595214844, -0.20228882133960724, 3.863344192504883, -2.0467183589935303, 1.3077093362808228, 
560, 1395285140, 91.36239624023438, -38.72903060913086, -51.964454650878906, 6.010432720184326, 7.78046989440918, -0.21808171272277832, 3.9424660205841064, -1.9426733255386353, 1.2863980531692505, 
561, 1395293473, 91.38211822509766, -38.7318229675293, -51.97706985473633, 6.010340690612793, 7.785604476928711, -0.20833799242973328, 4.168025016784668, -2.28669810295105, 1.283478021621704, 
562, 1395301806, 91.37822723388672, -38.724281311035156, -51.98200225830078, 6.027888774871826, 7.781843185424805, -0.21904852986335754, 4.414792537689209, -2.302245616912842, 1.316161870956421, 
563, 1395310139, 91.40148162841797, -38.727294921875, -51.995906829833984, 6.037174701690674, 7.786258220672607, -0.20945097506046295, 4.500702857971191, -2.4063291549682617, 1.3166228532791138, 
564, 1395318472, 91.40211486816406, -38.719886779785156, -52.00141525268555, 6.024163246154785, 7.794182300567627, -0.22274249792099, 4.673701286315918, -2.6050829887390137, 1.3013055324554443, 
565, 1395326805, 91.4306869506836, -38.723365783691406, -52.018272399902344, 6.021026134490967, 7.788726329803467, -0.1985999345779419, 4.919956684112549, -2.682360887527466, 1.3818366527557373, 
566, 1395335138, 91.43647766113281, -38.71615219116211, -52.028106689453125, 5.9967546463012695, 7.816537857055664, -0.220188170671463, 5.065855503082275, -2.8301808834075928, 1.3398807048797607, 
567, 1395343471, 91.4685287475586, -38.718833923339844, -52.0469970703125, 6.00538969039917, 7.802093505859375, -0.19785653054714203, 5.189009189605713, -2.874289035797119, 1.2955169677734375, 
568, 1395351804, 91.47966766357422, -38.71171951293945, -52.05817413330078, 6.0154948234558105, 7.809279441833496, -0.22090110182762146, 5.430678844451904, -3.12538480758667, 1.3396756649017334, 
569, 1395360137, 91.51741790771484, -38.714569091796875, -52.08163833618164, 5.997220516204834, 7.808605670928955, -0.2068166732788086, 5.535491943359375, -3.3032753467559814, 1.3308131694793701, 
570, 1395368470, 91.5335693359375, -38.708343505859375, -52.097103118896484, 5.98294734954834, 7.793695449829102, -0.20812980830669403, 5.73884391784668, -3.4348819255828857, 1.4592686891555786, 
571, 1395376803, 91.5750503540039, -38.71125793457031, -52.12238693237305, 5.99819278717041, 7.8151373863220215, -0.22040316462516785, 5.849932670593262, -3.476043701171875, 1.3472318649291992, 
572, 1395385136, 91.59513092041016, -38.70469665527344, -52.14039611816406, 6.010831356048584, 7.817837715148926, -0.19812925159931183, 5.987788677215576, -3.6548056602478027, 1.419592261314392, 
573, 1395393469, 91.64118194580078, -38.70796585083008, -52.16862487792969, 6.0132246017456055, 7.787066459655762, -0.1835441291332245, 6.184480667114258, -3.752523899078369, 1.4029430150985718, 
574, 1395401802, 91.66670227050781, -38.70111083984375, -52.18914031982422, 5.990469932556152, 7.812013149261475, -0.18975549936294556, 6.4126787185668945, -3.8893043994903564, 1.3930047750473022, 
575, 1395410135, 91.71736907958984, -38.7043342590332, -52.22061538696289, 5.996168613433838, 7.805478572845459, -0.1904696673154831, 6.498357772827148, -4.055848121643066, 1.4123178720474243, 
576, 1395418468, 91.7470474243164, -38.697227478027344, -52.24462127685547, 5.989364147186279, 7.803351402282715, -0.1731138974428177, 6.637033462524414, -4.191655158996582, 1.3745626211166382, 
577, 1395426801, 91.80137634277344, -38.69961929321289, -52.27971267700195, 6.010614395141602, 7.815972328186035, -0.1894034445285797, 6.670024871826172, -4.399334907531738, 1.3281750679016113, 
578, 1395435134, 91.83503723144531, -38.69218444824219, -52.305023193359375, 5.997349739074707, 7.799489498138428, -0.19828855991363525, 6.930776119232178, -4.378996849060059, 1.3278419971466064, 
579, 1395443467, 91.89275360107422, -38.69480895996094, -52.34195327758789, 6.023682594299316, 7.801633834838867, -0.18995879590511322, 6.946887493133545, -4.570283889770508, 1.3701565265655518, 
580, 1395451800, 91.93043518066406, -38.68751525878906, -52.36841583251953, 5.998152256011963, 7.799180507659912, -0.17452950775623322, 7.224238872528076, -4.577020645141602, 1.3374985456466675, 
581, 1395460133, 91.99230194091797, -38.69045639038086, -52.407535552978516, 6.022677898406982, 7.796867370605469, -0.19586703181266785, 7.284099578857422, -4.776529788970947, 1.4215900897979736, 
582, 1395468466, 92.03295135498047, -38.68289566040039, -52.44175338745117, 6.018974781036377, 7.788051128387451, -0.19587358832359314, 7.329692840576172, -4.841205596923828, 1.3716167211532593, 
583, 1395476799, 92.09718322753906, -38.68552017211914, -52.482913970947266, 6.039011001586914, 7.8175153732299805, -0.1754951775074005, 7.421905517578125, -4.965281009674072, 1.4017648696899414, 
584, 1395485132, 92.14047241210938, -38.677772521972656, -52.517520904541016, 6.034337043762207, 7.822573661804199, -0.20114949345588684, 7.523285388946533, -4.9595184326171875, 1.3317354917526245, 
585, 1395493465, 92.2059555053711, -38.67980194091797, -52.5587158203125, 6.0555925369262695, 7.793760776519775, -0.1707766056060791, 7.5735931396484375, -4.973478317260742, 1.3374987840652466, 
586, 1395501798, 92.25177764892578, -38.672733306884766, -52.59490203857422, 6.041831016540527, 7.791586875915527, -0.15233366191387177, 7.6424431800842285, -5.157618999481201, 1.416031837463379, 
587, 1395510131, 92.32066345214844, -38.67505645751953, -52.63898849487305, 6.031715393066406, 7.809506416320801, -0.17539070546627045, 7.768722057342529, -5.241121292114258, 1.3952075242996216, 
588, 1395518464, 92.3690185546875, -38.66748046875, -52.67567443847656, 6.036704063415527, 7.804114818572998, -0.16893059015274048, 7.831143856048584, -5.282412052154541, 1.3541990518569946, 
589, 1395526797, 92.43844604492188, -38.66989517211914, -52.71906661987305, 6.048539161682129, 7.819472789764404, -0.1426103264093399, 7.888570785522461, -5.175882339477539, 1.415314793586731, 
590, 1395535130, 92.48794555664062, -38.662837982177734, -52.757537841796875, 6.034305572509766, 7.8173675537109375, -0.16354437172412872, 7.9624152183532715, -5.257949352264404, 1.4309648275375366, 
591, 1395543463, 92.558837890625, -38.66586685180664, -52.802696228027344, 6.036906719207764, 7.798475742340088, -0.16459880769252777, 7.939003944396973, -5.337635040283203, 1.5059375762939453, 
592, 1395551796, 92.60954284667969, -38.65816116333008, -52.846309661865234, 6.0459723472595215, 7.798765182495117, -0.1953272521495819, 8.08592700958252, -5.243912220001221, 1.4214106798171997, 
593, 1395560129, 92.68182373046875, -38.66088104248047, -52.89157485961914, 6.021019458770752, 7.807997226715088, -0.14449448883533478, 8.106725692749023, -5.345268249511719, 1.478453516960144, 
594, 1395568462, 92.73252868652344, -38.653743743896484, -52.93585205078125, 6.038230895996094, 7.813453197479248, -0.14362159371376038, 8.010005950927734, -5.322292327880859, 1.465338945388794, 
595, 1395576795, 92.80668640136719, -38.656124114990234, -52.98219299316406, 6.0228495597839355, 7.795356750488281, -0.20411738753318787, 8.258004188537598, -5.444600582122803, 1.4553751945495605, 
596, 1395585128, 92.86073303222656, -38.6494026184082, -53.026092529296875, 6.009744167327881, 7.801967620849609, -0.17779743671417236, 8.189845085144043, -5.583481311798096, 1.5059376955032349, 
597, 1395593461, 92.93461608886719, -38.651702880859375, -53.07280349731445, 6.033306121826172, 7.8264384269714355, -0.17615868151187897, 8.200217247009277, -5.481509685516357, 1.4604978561401367, 
598, 1395601794, 92.98983001708984, -38.643856048583984, -53.11516189575195, 6.021500587463379, 7.829868793487549, -0.16636742651462555, 8.341584205627441, -5.553666114807129, 1.3571703433990479, 
599, 1395610127, 93.06414794921875, -38.64521026611328, -53.162750244140625, 6.03296422958374, 7.821283340454102, -0.1822008192539215, 8.19092082977295, -5.569418907165527, 1.365341305732727, 
600, 1395618460, 93.11973571777344, -38.63773727416992, -53.20804214477539, 6.028891563415527, 7.821909427642822, -0.16701184213161469, 8.383821487426758, -5.5318169593811035, 1.4365744590759277, 
601, 1395626793, 93.1937484741211, -38.63954544067383, -53.25486373901367, 6.0256829261779785, 7.830428600311279, -0.13925713300704956, 8.216841697692871, -5.490987300872803, 1.427506923675537, 
602, 1395635126, 93.24851989746094, -38.63230895996094, -53.2993049621582, 6.019932270050049, 7.816947937011719, -0.1388474553823471, 8.265765190124512, -5.545238494873047, 1.4643659591674805, 
603, 1395643459, 93.32392883300781, -38.63410186767578, -53.34720993041992, 6.025245189666748, 7.826807975769043, -0.16487517952919006, 8.310897827148438, -5.591703414916992, 1.4420303106307983, 
604, 1395651792, 93.37808227539062, -38.62572479248047, -53.39654541015625, 6.040960311889648, 7.813148021697998, -0.1411009132862091, 8.221273422241211, -5.497314453125, 1.3544551134109497, 
605, 1395660125, 93.45185089111328, -38.62779235839844, -53.4422721862793, 6.039278507232666, 7.833105087280273, -0.14385591447353363, 8.286077499389648, -5.379693984985352, 1.4753799438476562, 
606, 1395668458, 93.50686645507812, -38.62055969238281, -53.4873161315918, 6.007872581481934, 7.819238662719727, -0.17000818252563477, 8.27637004852295, -5.551693916320801, 1.4613690376281738, 
607, 1395676791, 93.58145904541016, -38.621238708496094, -53.535274505615234, 6.0268754959106445, 7.799500465393066, -0.1582709699869156, 8.222118377685547, -5.60059118270874, 1.3333747386932373, 
608, 1395685124, 93.63511657714844, -38.61365509033203, -53.584163665771484, 6.025662422180176, 7.821755886077881, -0.16006356477737427, 8.099503517150879, -5.56163215637207, 1.4565792083740234, 
609, 1395693457, 93.70771026611328, -38.614967346191406, -53.62969970703125, 6.018006324768066, 7.8156304359436035, -0.1377294659614563, 8.171453475952148, -5.365836143493652, 1.4061191082000732, 
610, 1395701790, 93.76084899902344, -38.6079216003418, -53.6734733581543, 6.019262790679932, 7.822996616363525, -0.14859338104724884, 8.116101264953613, -5.458278179168701, 1.4801186323165894, 
