sep=,
PacketCounter,SampleTimeFine,Euler_X,Euler_Y,Euler_Z,Acc_X,Acc_Y,Acc_Z,Gyr_X,Gyr_Y,Gyr_Z,
0, 672019890, -127.7757797241211, -87.0721664428711, -124.00508117675781, 0, 0, 0, 0, 0, 0, 
1, 672028223, -125.6346664428711, -87.1368637084961, -126.11946868896484, 9.94497299194336, -0.3963771164417267, -0.3563593924045563, 3.5164895057678223, 14.908013343811035, 1.447217345237732, 
2, 672036556, -124.14820861816406, -87.18338775634766, -127.6017837524414, 9.986459732055664, -0.3823869526386261, -0.37188419699668884, 3.47927188873291, 15.775385856628418, 1.4669402837753296, 
3, 672044889, -121.58358764648438, -87.24750518798828, -130.13909912109375, 9.97673511505127, -0.39589419960975647, -0.3832941949367523, 3.557638645172119, 16.572463989257812, 1.6086511611938477, 
4, 672053222, -120.81547546386719, -87.2738037109375, -130.9029083251953, 9.972024917602539, -0.38922119140625, -0.3547251224517822, 3.6588282585144043, 17.446231842041016, 1.5666567087173462, 
5, 672061555, -117.82720947265625, -87.33744049072266, -133.86473083496094, 9.971577644348145, -0.38997337222099304, -0.3579725921154022, 3.495819091796875, 18.282716751098633, 1.566426157951355, 
6, 672069888, -116.90167999267578, -87.36485290527344, -134.7572021484375, 10.00135612487793, -0.38915857672691345, -0.39415261149406433, 3.5905275344848633, 18.973007202148438, 1.5279663801193237, 
7, 672078221, -113.5047607421875, -87.42268371582031, -138.1278076171875, 9.980377197265625, -0.4098537564277649, -0.36823657155036926, 3.5912322998046875, 19.602928161621094, 1.5409657955169678, 
8, 672086554, -112.44620513916016, -87.44212341308594, -139.1709747314453, 10.000771522521973, -0.39243799448013306, -0.3769984245300293, 3.5087289810180664, 20.462566375732422, 1.55026376247406, 
9, 672094887, -108.6276626586914, -87.49141693115234, -142.96246337890625, 9.992654800415039, -0.3838604688644409, -0.34715017676353455, 3.6555368900299072, 20.895612716674805, 1.5428740978240967, 
10, 672103220, -107.26936340332031, -87.5103759765625, -144.32167053222656, 9.999549865722656, -0.39969876408576965, -0.38354063034057617, 3.628885507583618, 21.504812240600586, 1.6320244073867798, 
11, 672111553, -103.05168151855469, -87.54480743408203, -148.5126190185547, 10.004029273986816, -0.4044903516769409, -0.3936753571033478, 3.6419363021850586, 22.01559829711914, 1.6943055391311646, 
12, 672119886, -101.50593566894531, -87.55623626708984, -150.07371520996094, 10.009907722473145, -0.3945152759552002, -0.386673241853714, 3.6021311283111572, 22.591585159301758, 1.6124681234359741, 
13, 672128219, -96.96952056884766, -87.57408142089844, -154.58262634277344, 10.00163745880127, -0.39183786511421204, -0.38849157094955444, 3.7495927810668945, 23.03145980834961, 1.5891079902648926, 
14, 672136552, -95.23100280761719, -87.57909393310547, -156.338134765625, 9.982378959655762, -0.38540342450141907, -0.38667619228363037, 3.72497820854187, 23.552200317382812, 1.5730481147766113, 
15, 672144885, -90.48954010009766, -87.57577514648438, -161.05282592773438, 9.993203163146973, -0.36421582102775574, -0.35905396938323975, 3.70566463470459, 23.86330795288086, 1.5940771102905273, 
16, 672153218, -88.60054016113281, -87.57376098632812, -162.9662322998047, 9.989809036254883, -0.38379502296447754, -0.37729066610336304, 3.6862740516662598, 24.14698600769043, 1.677425742149353, 
17, 672161551, -83.80732727050781, -87.54584503173828, -167.73374938964844, 10.00957202911377, -0.4037906229496002, -0.410026878118515, 3.64267897605896, 24.520700454711914, 1.6938960552215576, 
18, 672169884, -81.89996337890625, -87.53423309326172, -169.6802520751953, 10.01106071472168, -0.3917847275733948, -0.37606287002563477, 3.8537662029266357, 24.66216468811035, 1.622457504272461, 
19, 672178217, -77.24153900146484, -87.48239135742188, -174.31207275390625, 9.984713554382324, -0.3876008093357086, -0.39486417174339294, 3.7403199672698975, 24.885906219482422, 1.711082935333252, 
20, 672186550, -75.36398315429688, -87.45963287353516, -176.2139129638672, 9.99792194366455, -0.4161492884159088, -0.3738144040107727, 3.674236297607422, 25.06605339050293, 1.6504542827606201, 
21, 672194883, -70.93243408203125, -87.38431549072266, 179.3812255859375, 10.000722885131836, -0.3827630281448364, -0.38132959604263306, 3.7597365379333496, 25.361616134643555, 1.723813533782959, 
22, 672203216, -69.16155242919922, -87.35100555419922, 177.58700561523438, 10.00922966003418, -0.3880116939544678, -0.39149823784828186, 3.7464940547943115, 25.269943237304688, 1.7290388345718384, 
23, 672211549, -65.0992202758789, -87.25654602050781, 173.55088806152344, 10.014055252075195, -0.40778878331184387, -0.39979487657546997, 3.680537223815918, 25.39898681640625, 1.5894922018051147, 
24, 672219882, -63.500370025634766, -87.2146987915039, 171.92263793945312, 9.985358238220215, -0.40186387300491333, -0.4203333556652069, 3.7371320724487305, 25.3375244140625, 1.6925256252288818, 
25, 672228215, -59.86885070800781, -87.10267639160156, 168.31895446777344, 9.988356590270996, -0.41429606080055237, -0.42358002066612244, 3.8549959659576416, 25.248733520507812, 1.6623648405075073, 
26, 672236548, -58.47747802734375, -87.05536651611328, 166.8890380859375, 9.992420196533203, -0.39324328303337097, -0.3941601514816284, 3.7274370193481445, 25.278881072998047, 1.6270170211791992, 
27, 672244881, -55.25653839111328, -86.92987060546875, 163.6951446533203, 10.004376411437988, -0.39614352583885193, -0.37292298674583435, 3.7853379249572754, 25.065759658813477, 1.6086645126342773, 
28, 672253214, -54.067230224609375, -86.87895202636719, 162.52955627441406, 9.988061904907227, -0.39230287075042725, -0.40078967809677124, 3.6951115131378174, 24.825611114501953, 1.631140947341919, 
29, 672261547, -51.26974868774414, -86.74321746826172, 159.75794982910156, 9.993091583251953, -0.39778777956962585, -0.41947177052497864, 3.611839532852173, 24.60435676574707, 1.7439717054367065, 
30, 672269880, -50.29414749145508, -86.69091796875, 158.80661010742188, 9.95747184753418, -0.38825851678848267, -0.43394410610198975, 3.756662607192993, 24.233179092407227, 1.715667963027954, 
31, 672278213, -47.85610580444336, -86.54883575439453, 156.39480590820312, 9.967042922973633, -0.39700308442115784, -0.42344582080841064, 3.6599433422088623, 24.073322296142578, 1.7088549137115479, 
32, 672286546, -47.05313491821289, -86.49803924560547, 155.61572265625, 9.981534957885742, -0.402269572019577, -0.42400693893432617, 3.674670934677124, 23.618614196777344, 1.6518627405166626, 
33, 672294879, -44.95636749267578, -86.35417175292969, 153.54505920410156, 9.954700469970703, -0.4121825695037842, -0.402195543050766, 3.6130685806274414, 23.150104522705078, 1.6662836074829102, 
34, 672303212, -44.32139205932617, -86.30652618408203, 152.93409729003906, 9.966064453125, -0.4009499251842499, -0.40662530064582825, 3.6897835731506348, 22.655290603637695, 1.5872892141342163, 
35, 672311545, -42.50559997558594, -86.1629409790039, 151.14532470703125, 9.94709300994873, -0.39440664649009705, -0.389570027589798, 3.7022578716278076, 22.210908889770508, 1.597791075706482, 
36, 672319878, -42.00581741333008, -86.1196517944336, 150.66941833496094, 9.947134017944336, -0.3979313373565674, -0.4075336158275604, 3.635685920715332, 21.672826766967773, 1.5765568017959595, 
37, 672328211, -40.44952392578125, -85.9792251586914, 149.139892578125, 9.942378997802734, -0.3938872516155243, -0.41613996028900146, 3.660557985305786, 21.00634765625, 1.579015851020813, 
38, 672336544, -40.082763671875, -85.94189453125, 148.79681396484375, 9.919429779052734, -0.3918232023715973, -0.4409453570842743, 3.5826642513275146, 20.45676612854004, 1.5786057710647583, 
39, 672344877, -38.74238967895508, -85.80632781982422, 147.48350524902344, 9.916332244873047, -0.40517571568489075, -0.4083976447582245, 3.6620943546295166, 19.79292106628418, 1.5736111402511597, 
40, 672353210, -38.491844177246094, -85.77598571777344, 147.256591796875, 9.928553581237793, -0.3851989805698395, -0.4326484799385071, 3.5510566234588623, 19.212398529052734, 1.595997929573059, 
41, 672361543, -37.34617233276367, -85.64662170410156, 146.1378173828125, 9.888718605041504, -0.3636494576931, -0.41532617807388306, 3.6066391468048096, 18.433570861816406, 1.6159001588821411, 
42, 672369876, -37.192420959472656, -85.62592315673828, 146.0081329345703, 9.89163589477539, -0.3798696994781494, -0.42927318811416626, 3.5708560943603516, 17.7088680267334, 1.4662872552871704, 
43, 672378209, -36.202144622802734, -85.50572967529297, 145.0452117919922, 9.877281188964844, -0.3794895112514496, -0.4507378041744232, 3.6366331577301025, 16.925968170166016, 1.4546585083007812, 
44, 672386542, -36.150604248046875, -85.4948501586914, 145.01828002929688, 9.883024215698242, -0.3909327983856201, -0.42221203446388245, 3.5899641513824463, 16.15241813659668, 1.4973828792572021, 
45, 672394875, -35.31538009643555, -85.38420867919922, 144.20968627929688, 9.890257835388184, -0.3794434666633606, -0.42850130796432495, 3.506819486618042, 15.314114570617676, 1.4923622608184814, 
46, 672403208, -35.36739730834961, -85.3853988647461, 144.2856903076172, 9.859148979187012, -0.3855728209018707, -0.42836514115333557, 3.48463773727417, 14.270895004272461, 1.447153091430664, 
47, 672411541, -34.67097854614258, -85.28790283203125, 143.6156005859375, 9.861011505126953, -0.40359991788864136, -0.45234546065330505, 3.424931526184082, 13.371838569641113, 1.3643683195114136, 
48, 672419874, -34.8162841796875, -85.29988861083984, 143.78382873535156, 9.85660171508789, -0.3944941461086273, -0.42359867691993713, 3.306363105773926, 12.519319534301758, 1.4295051097869873, 
49, 672428207, -34.24125289916992, -85.21390533447266, 143.2348175048828, 9.848550796508789, -0.3929905295372009, -0.4095136523246765, 3.3571810722351074, 11.62929916381836, 1.3638556003570557, 
50, 672436540, -34.483497619628906, -85.23802947998047, 143.50062561035156, 9.84881591796875, -0.4034402668476105, -0.42657724022865295, 3.3329243659973145, 10.575477600097656, 1.4429012537002563, 
51, 672444873, -34.0363655090332, -85.16495513916016, 143.08016967773438, 9.851974487304688, -0.40136897563934326, -0.4505062997341156, 3.385664701461792, 9.671348571777344, 1.4537105560302734, 
52, 672453206, -34.363243103027344, -85.2013931274414, 143.43199157714844, 9.842347145080566, -0.3794194757938385, -0.43018245697021484, 3.4579479694366455, 8.647905349731445, 1.313575029373169, 
53, 672461539, -34.0257453918457, -85.14344787597656, 143.1210479736328, 9.827874183654785, -0.390389084815979, -0.419009268283844, 3.3248558044433594, 7.556813716888428, 1.3059929609298706, 
54, 672469872, -34.47434997558594, -85.19339752197266, 143.59446716308594, 9.80744743347168, -0.3925569951534271, -0.41751137375831604, 3.3739073276519775, 6.375741958618164, 1.4153659343719482, 
55, 672478205, -34.262481689453125, -85.15160369873047, 143.40988159179688, 9.817270278930664, -0.38046783208847046, -0.4211992621421814, 3.3612279891967773, 5.250687599182129, 1.2986160516738892, 
56, 672486538, -34.8220100402832, -85.21422576904297, 143.99440002441406, 9.819138526916504, -0.39441174268722534, -0.4355088174343109, 3.355336904525757, 4.254344940185547, 1.4273533821105957, 
57, 672494871, -34.71209716796875, -85.18566131591797, 143.91134643554688, 9.81499195098877, -0.38373735547065735, -0.43694740533828735, 3.2607181072235107, 3.367708683013916, 1.2856553792953491, 
58, 672503204, -35.36858367919922, -85.26079559326172, 144.59176635742188, 9.804309844970703, -0.37659206986427307, -0.379016250371933, 3.1790852546691895, 2.230180263519287, 1.2036129236221313, 
59, 672511537, -35.38216781616211, -85.24754333496094, 144.63246154785156, 9.803566932678223, -0.37846189737319946, -0.4380638897418976, 3.24411940574646, 1.1349409818649292, 1.2584528923034668, 
60, 672519870, -36.18157958984375, -85.33570098876953, 145.4563446044922, 9.807913780212402, -0.3877447545528412, -0.4304491877555847, 3.179521083831787, -0.10249535739421844, 1.217854380607605, 
61, 672528203, -36.32761764526367, -85.33704376220703, 145.62918090820312, 9.80982494354248, -0.3974097669124603, -0.4433974325656891, 3.1516780853271484, -1.0507087707519531, 1.272822618484497, 
62, 672536536, -37.28120803833008, -85.43653869628906, 146.606689453125, 9.811519622802734, -0.3962705135345459, -0.4567042589187622, 3.0667154788970947, -2.270458459854126, 1.199540138244629, 
63, 672544869, -37.571231842041016, -85.45287322998047, 146.92242431640625, 9.81432056427002, -0.39149606227874756, -0.42313966155052185, 2.971149206161499, -3.3027126789093018, 1.2096322774887085, 
64, 672553202, -38.697227478027344, -85.56226348876953, 148.07278442382812, 9.809000968933105, -0.37124621868133545, -0.4297768473625183, 3.059774160385132, -4.360067844390869, 1.178152322769165, 
65, 672561535, -39.14642333984375, -85.59264373779297, 148.5482177734375, 9.82772445678711, -0.3815976679325104, -0.40720656514167786, 2.981804132461548, -5.508302688598633, 1.1429839134216309, 
66, 672569868, -40.48149108886719, -85.7119369506836, 149.90725708007812, 9.81900405883789, -0.3930225074291229, -0.43329209089279175, 2.9635672569274902, -6.58084774017334, 1.1280510425567627, 
67, 672578201, -41.12520217895508, -85.75480651855469, 150.57650756835938, 9.809954643249512, -0.38488635420799255, -0.42481207847595215, 2.848482131958008, -7.710819244384766, 1.1641156673431396, 
68, 672586534, -42.71208953857422, -85.88143920898438, 152.18838500976562, 9.822607040405273, -0.387001097202301, -0.43786293268203735, 3.025989294052124, -8.72565746307373, 1.1334044933319092, 
69, 672594867, -43.560001373291016, -85.93505096435547, 153.0635528564453, 9.818323135375977, -0.3981224596500397, -0.40682947635650635, 3.013310194015503, -9.721307754516602, 1.0755163431167603, 
70, 672603200, -45.43599319458008, -86.06637573242188, 154.96482849121094, 9.824380874633789, -0.38960155844688416, -0.4388982951641083, 3.004601240158081, -10.752100944519043, 1.0665513277053833, 
71, 672611533, -46.55289840698242, -86.12930297851562, 156.1096954345703, 9.829689979553223, -0.3861581087112427, -0.41161248087882996, 3.049912691116333, -11.861811637878418, 1.0735950469970703, 
72, 672619866, -48.78710174560547, -86.262939453125, 158.36874389648438, 9.83726978302002, -0.37169328331947327, -0.434001624584198, 2.8968935012817383, -12.791532516479492, 1.0271822214126587, 
73, 672628199, -50.21095275878906, -86.33238220214844, 159.819580078125, 9.83359146118164, -0.38960111141204834, -0.4007323682308197, 2.866054058074951, -13.838720321655273, 0.9831001162528992, 
74, 672636532, -52.88218307495117, -86.46366119384766, 162.5155487060547, 9.854009628295898, -0.3978293836116791, -0.4395260214805603, 2.8463823795318604, -14.791288375854492, 1.0599428415298462, 
75, 672644865, -54.67751693725586, -86.53541564941406, 164.33877563476562, 9.834158897399902, -0.4031367003917694, -0.42334580421447754, 2.946021795272827, -15.746647834777832, 0.9520556926727295, 
76, 672653198, -57.83502197265625, -86.65853881835938, 167.52127075195312, 9.865567207336426, -0.3641766905784607, -0.42456477880477905, 2.805783748626709, -16.49658203125, 1.0607112646102905, 
77, 672661531, -60.06376266479492, -86.7270278930664, 169.77725219726562, 9.854095458984375, -0.3863971531391144, -0.417910099029541, 2.8552708625793457, -17.50447654724121, 0.9998262524604797, 
78, 672669864, -63.785701751708984, -86.83751678466797, 173.52447509765625, 9.899791717529297, -0.38746562600135803, -0.4089530408382416, 2.774355411529541, -18.31983184814453, 0.9668095707893372, 
79, 672678197, -66.48587799072266, -86.89752197265625, 176.25218200683594, 9.880959510803223, -0.39287376403808594, -0.4028138220310211, 2.823970317840576, -19.12160873413086, 0.9956511855125427, 
80, 672686530, -70.79742431640625, -86.98623657226562, -179.4116973876953, 9.902748107910156, -0.37063080072402954, -0.4212840795516968, 2.686396360397339, -19.966598510742188, 0.9221896529197693, 
81, 672694863, -73.99353790283203, -87.03165435791016, -176.18878173828125, 9.912336349487305, -0.39322179555892944, -0.4240722954273224, 2.6903159618377686, -20.73520851135254, 0.9277223944664001, 
82, 672703196, -78.84648132324219, -87.09121704101562, -171.31053161621094, 9.928656578063965, -0.3929019272327423, -0.4483056664466858, 2.73429536819458, -21.479965209960938, 0.828774631023407, 
83, 672711529, -82.46285247802734, -87.11405181884766, -167.6660614013672, 9.914196014404297, -0.39777472615242004, -0.436776727437973, 2.798663377761841, -22.099214553833008, 0.9108936786651611, 
84, 672719862, -87.70681762695312, -87.1347427368164, -162.39744567871094, 9.926077842712402, -0.39714315533638, -0.41391152143478394, 2.6489744186401367, -22.83439826965332, 0.9361238479614258, 
85, 672728195, -91.60391998291016, -87.1288070678711, -158.47271728515625, 9.94050407409668, -0.4028659164905548, -0.4118201732635498, 2.7298381328582764, -23.396013259887695, 0.8701927661895752, 
86, 672736528, -96.95814514160156, -87.1072769165039, -153.0921173095703, 9.929014205932617, -0.375520259141922, -0.4207358956336975, 2.7109861373901367, -23.997230529785156, 0.8993673920631409, 
87, 672744861, -100.90127563476562, -87.0688247680664, -149.12229919433594, 9.954829216003418, -0.38949668407440186, -0.43879908323287964, 2.631249189376831, -24.44673728942871, 0.7837958931922913, 
88, 672753194, -106.07735443115234, -87.00291442871094, -143.9213409423828, 9.950101852416992, -0.4010024964809418, -0.41541004180908203, 2.635885238647461, -25.075746536254883, 0.8908891677856445, 
89, 672761527, -109.85470581054688, -86.92916107177734, -140.11639404296875, 9.953751564025879, -0.38909298181533813, -0.39659810066223145, 2.679532289505005, -25.537982940673828, 0.9749808311462402, 
90, 672769860, -114.59120178222656, -86.82281494140625, -135.3541717529297, 9.972698211669922, -0.3856898248195648, -0.40057677030563354, 2.6403679847717285, -25.921478271484375, 0.7441964149475098, 
91, 672778193, -118.01947021484375, -86.71830749511719, -131.89749145507812, 9.973967552185059, -0.38771429657936096, -0.4120698869228363, 2.7397518157958984, -26.32462501525879, 0.9118673801422119, 
92, 672786526, -122.16728210449219, -86.57503509521484, -127.72065734863281, 9.97237777709961, -0.40777522325515747, -0.3775889575481415, 2.6692099571228027, -26.65392303466797, 0.8806179761886597, 
93, 672794859, -125.17909240722656, -86.44355773925781, -124.68175506591797, 9.969523429870605, -0.3863077759742737, -0.3992711901664734, 2.6280736923217773, -27.018848419189453, 0.8107167482376099, 
94, 672803192, -128.7138214111328, -86.27217864990234, -121.12834930419922, 9.97301959991455, -0.3818953335285187, -0.39227792620658875, 2.6473605632781982, -27.207698822021484, 0.8510846495628357, 
95, 672811525, -131.2891845703125, -86.11949920654297, -118.52472686767578, 9.997076034545898, -0.3796898126602173, -0.38742420077323914, 2.713087320327759, -27.448759078979492, 0.7190945148468018, 
96, 672819858, -134.25869750976562, -85.92623901367188, -115.50422668457031, 10.005409240722656, -0.38861408829689026, -0.3929542899131775, 2.5789966583251953, -27.602800369262695, 0.7901228070259094, 
97, 672828191, -136.43634033203125, -85.75619506835938, -113.29991149902344, 9.992765426635742, -0.40582334995269775, -0.3890281319618225, 2.5096335411071777, -27.79232406616211, 0.7137924432754517, 
98, 672836524, -138.90701293945312, -85.54781341552734, -110.81307983398438, 9.998788833618164, -0.38264793157577515, -0.3784579932689667, 2.7001266479492188, -27.787660598754883, 0.74906325340271, 
99, 672844857, -140.7270050048828, -85.3646011352539, -108.96622467041016, 10.011575698852539, -0.3844931721687317, -0.38841283321380615, 2.555175542831421, -27.901824951171875, 0.7802101969718933, 
100, 672853190, -142.7764434814453, -85.14611053466797, -106.88701629638672, 10.016440391540527, -0.38007399439811707, -0.3864601254463196, 2.5283315181732178, -27.778566360473633, 0.7717574238777161, 
101, 672861523, -144.2945556640625, -84.95511627197266, -105.34151458740234, 10.0021390914917, -0.3911627531051636, -0.37194353342056274, 2.607351541519165, -27.721677780151367, 0.7731149196624756, 
102, 672869856, -145.99676513671875, -84.7306900024414, -103.63829040527344, 10.016366958618164, -0.3978424072265625, -0.3686521351337433, 2.5511281490325928, -27.616865158081055, 0.8119462132453918, 
103, 672878189, -147.26708984375, -84.5342025756836, -102.34066772460938, 10.029672622680664, -0.40153607726097107, -0.3782747983932495, 2.5993595123291016, -27.475980758666992, 0.8247532248497009, 
104, 672886522, -148.69155883789062, -84.30860137939453, -100.88329315185547, 9.997922897338867, -0.3864760398864746, -0.39650022983551025, 2.5707483291625977, -27.22762680053711, 0.7277520298957825, 
105, 672894855, -149.76490783691406, -84.10951232910156, -99.78271484375, 9.99988842010498, -0.3814215362071991, -0.34977856278419495, 2.594339370727539, -27.124557495117188, 0.8014442920684814, 
106, 672903188, -150.95387268066406, -83.88439178466797, -98.57022094726562, 10.015399932861328, -0.39434614777565, -0.3599548637866974, 2.532839775085449, -26.72523307800293, 0.8293382525444031, 
107, 672911521, -151.86012268066406, -83.68590545654297, -97.63665008544922, 10.023127555847168, -0.39690831303596497, -0.3504830598831177, 2.6092212200164795, -26.494905471801758, 0.78069669008255, 
108, 672919854, -152.86740112304688, -83.46343231201172, -96.60384368896484, 10.005685806274414, -0.4069332182407379, -0.35201296210289, 2.630685806274414, -26.21327781677246, 0.7984218597412109, 
109, 672928187, -153.6217498779297, -83.26754760742188, -95.82200622558594, 9.98494815826416, -0.3928242325782776, -0.3469740152359009, 2.6692607402801514, -25.631906509399414, 0.9311291575431824, 
110, 672936520, -154.46670532226562, -83.05223083496094, -94.95069885253906, 10.021546363830566, -0.4090747833251953, -0.37476328015327454, 2.6683132648468018, -25.25823974609375, 0.8375604152679443, 
111, 672944853, -155.11094665527344, -82.86188507080078, -94.2796401977539, 9.984403610229492, -0.3901650309562683, -0.35407012701034546, 2.6158809661865234, -24.627843856811523, 0.8247787952423096, 
112, 672953186, -155.82789611816406, -82.65522003173828, -93.537353515625, 9.993569374084473, -0.3881843686103821, -0.3599942922592163, 2.583299398422241, -24.188444137573242, 0.796142041683197, 
113, 672961519, -156.3737335205078, -82.47120666503906, -92.9645004272461, 9.982259750366211, -0.40750589966773987, -0.3588408827781677, 2.6680824756622314, -23.55280113220215, 0.8432210683822632, 
114, 672969852, -156.98220825195312, -82.27455139160156, -92.33063507080078, 9.99560832977295, -0.397169291973114, -0.37639734148979187, 2.5966696739196777, -23.036699295043945, 0.795655369758606, 
115, 672978185, -157.43850708007812, -82.0987548828125, -91.84801483154297, 9.990047454833984, -0.40205228328704834, -0.3430006802082062, 2.6117565631866455, -22.258163452148438, 0.9475989937782288, 
116, 672986518, -157.94509887695312, -81.91458892822266, -91.3162841796875, 9.988614082336426, -0.40894803404808044, -0.34141895174980164, 2.623461961746216, -21.577171325683594, 0.905386745929718, 
117, 672994851, -158.3347930908203, -81.74795532226562, -90.89915466308594, 9.965822219848633, -0.3886276185512543, -0.35133540630340576, 2.788686752319336, -20.959367752075195, 0.8764554262161255, 
118, 673003184, -158.76123046875, -81.5773696899414, -90.44640350341797, 9.979438781738281, -0.38547059893608093, -0.36111852526664734, 2.7821807861328125, -20.078392028808594, 0.8837811350822449, 
119, 673011517, -159.0872039794922, -81.42135620117188, -90.09432983398438, 9.992602348327637, -0.4120240807533264, -0.3755051791667938, 2.678391695022583, -19.462596893310547, 0.9382623434066772, 
120, 673019850, -159.4427490234375, -81.26409912109375, -89.71250915527344, 9.97776985168457, -0.3824090361595154, -0.3459540605545044, 2.8062195777893066, -18.605199813842773, 0.9651703238487244, 
121, 673028183, -159.71047973632812, -81.12210083007812, -89.41797637939453, 9.9657564163208, -0.3789202570915222, -0.3833485245704651, 2.808499336242676, -17.609752655029297, 0.9110472202301025, 
122, 673036516, -160.00051879882812, -80.97996520996094, -89.10173797607422, 9.937836647033691, -0.38929101824760437, -0.348421573638916, 2.8405938148498535, -16.922842025756836, 1.0773862600326538, 
123, 673044849, -160.2199249267578, -80.8509750366211, -88.85595703125, 9.94295597076416, -0.3666801452636719, -0.3643835484981537, 2.8144540786743164, -15.879496574401855, 0.9198458194732666, 
124, 673053182, -160.4533233642578, -80.72663879394531, -88.59632110595703, 9.942466735839844, -0.3876355290412903, -0.3431243896484375, 2.8881847858428955, -14.960061073303223, 1.0832774639129639, 
125, 673061515, -160.62188720703125, -80.6109619140625, -88.40159606933594, 9.951186180114746, -0.40222564339637756, -0.33230847120285034, 2.8387491703033447, -14.098472595214844, 1.0902186632156372, 
126, 673069848, -160.8062286376953, -80.50309753417969, -88.1911392211914, 9.954676628112793, -0.37286150455474854, -0.35189926624298096, 2.931396245956421, -13.150172233581543, 1.1273339986801147, 
127, 673078181, -160.93548583984375, -80.4032974243164, -88.03524017333984, 9.9483060836792, -0.41687408089637756, -0.3436088562011719, 2.9497997760772705, -12.075883865356445, 1.0297564268112183, 
128, 673086514, -161.07498168945312, -80.31371307373047, -87.86961364746094, 9.94322395324707, -0.3948340117931366, -0.334004670381546, 2.9659366607666016, -11.15123462677002, 1.126962423324585, 
129, 673094847, -161.16610717773438, -80.22940063476562, -87.7516098022461, 9.957194328308105, -0.39877352118492126, -0.3512711524963379, 3.0319063663482666, -10.09477710723877, 1.0485188961029053, 
130, 673103180, -161.26861572265625, -80.1587142944336, -87.62377166748047, 9.924421310424805, -0.40525129437446594, -0.3342058062553406, 2.9277589321136475, -9.077315330505371, 1.0357118844985962, 
131, 673111513, -161.32090759277344, -80.09103393554688, -87.54551696777344, 9.969298362731934, -0.3963206112384796, -0.3686852753162384, 2.980152130126953, -7.964489936828613, 1.124042272567749, 
132, 673119846, -161.38075256347656, -80.0395278930664, -87.4605712890625, 9.944694519042969, -0.3716036379337311, -0.345263808965683, 2.953078269958496, -6.931724548339844, 1.0977364778518677, 
133, 673128179, -161.39654541015625, -79.98829650878906, -87.41907501220703, 9.943410873413086, -0.3714958429336548, -0.3252442479133606, 3.008596658706665, -5.861420154571533, 1.1884746551513672, 
134, 673136512, -161.41473388671875, -79.95600128173828, -87.3753662109375, 9.943058013916016, -0.3928542733192444, -0.3223245441913605, 3.0643460750579834, -4.761763572692871, 1.1713262796401978, 
135, 673144845, -161.39276123046875, -79.92288208007812, -87.37145233154297, 9.933063507080078, -0.3974091410636902, -0.34400007128715515, 3.107762575149536, -3.552643299102783, 1.2374621629714966, 
136, 673153178, -161.3715362548828, -79.91008758544922, -87.36749267578125, 9.908522605895996, -0.3821789622306824, -0.3174007534980774, 3.080688238143921, -2.5619871616363525, 1.2247575521469116, 
137, 673161511, -161.32080078125, -79.89315795898438, -87.39280700683594, 9.90375804901123, -0.39278653264045715, -0.3431931436061859, 3.096709728240967, -1.522779107093811, 1.2029982805252075, 
138, 673169844, -161.26039123535156, -79.89944458007812, -87.4276351928711, 9.93793773651123, -0.39114081859588623, -0.3625088930130005, 3.184156894683838, -0.39070674777030945, 1.2799689769744873, 
139, 673178177, -161.17539978027344, -79.90003204345703, -87.48798370361328, 9.946517944335938, -0.3942263722419739, -0.3219434916973114, 3.08884596824646, 0.7173522114753723, 1.2243859767913818, 
140, 673186510, -161.0759735107422, -79.92584991455078, -87.56282043457031, 9.932317733764648, -0.414672315120697, -0.3492007553577423, 3.1244115829467773, 1.8474650382995605, 1.3247554302215576, 
141, 673194843, -160.95347595214844, -79.9436264038086, -87.66093444824219, 9.930893898010254, -0.38784539699554443, -0.35290393233299255, 3.1147677898406982, 2.9164369106292725, 1.301433801651001, 
142, 673203176, -160.81396484375, -79.98792266845703, -87.77457427978516, 9.923355102539062, -0.409572571516037, -0.34463489055633545, 3.3345890045166016, 3.982424259185791, 1.3545576333999634, 
143, 673211509, -160.65374755859375, -80.02239990234375, -87.90946197509766, 9.934394836425781, -0.4104050397872925, -0.3418370187282562, 3.282771587371826, 5.047285079956055, 1.3430567979812622, 
144, 673219842, -160.47315979003906, -80.08499908447266, -88.06486511230469, 9.925270080566406, -0.39167800545692444, -0.3532118797302246, 3.317504405975342, 6.126514911651611, 1.3933887481689453, 
145, 673228175, -160.27195739746094, -80.13502502441406, -88.24095916748047, 9.90373420715332, -0.398241251707077, -0.3334597647190094, 3.328378438949585, 7.081811904907227, 1.4596916437149048, 
146, 673236508, -160.0515594482422, -80.21527862548828, -88.43687438964844, 9.930773735046387, -0.3992125689983368, -0.348805695772171, 3.2747414112091064, 8.180302619934082, 1.3789551258087158, 
147, 673244841, -159.81292724609375, -80.28104400634766, -88.6513671875, 9.949820518493652, -0.3921610713005066, -0.3299467861652374, 3.2840521335601807, 9.12717056274414, 1.4370096921920776, 
148, 673253174, -159.544677734375, -80.37704467773438, -88.89399719238281, 9.958518981933594, -0.400272399187088, -0.34303316473960876, 3.47042179107666, 10.077973365783691, 1.4726139307022095, 
149, 673261507, -159.2603759765625, -80.4587173461914, -89.15399169921875, 9.940089225769043, -0.3968456983566284, -0.3549273908138275, 3.3531594276428223, 11.194753646850586, 1.4748677015304565, 
150, 673269840, -158.94638061523438, -80.57125091552734, -89.44351959228516, 9.963319778442383, -0.41649019718170166, -0.368630588054657, 3.3887767791748047, 12.071978569030762, 1.4294923543930054, 
151, 673278173, -158.61764526367188, -80.6656723022461, -89.74720764160156, 9.96553897857666, -0.4041465222835541, -0.3752683401107788, 3.500864267349243, 12.904824256896973, 1.4963452816009521, 
152, 673286506, -158.2493133544922, -80.79252624511719, -90.09115600585938, 9.946351051330566, -0.38806092739105225, -0.3601473569869995, 3.439863920211792, 13.86508846282959, 1.494539499282837, 
153, 673294839, -157.87213134765625, -80.90059661865234, -90.44346618652344, 9.966662406921387, -0.40105170011520386, -0.35364747047424316, 3.51212215423584, 14.717609405517578, 1.460780143737793, 
154, 673303172, -157.44357299804688, -81.04232788085938, -90.84711456298828, 9.963380813598633, -0.39155757427215576, -0.3706359565258026, 3.5329205989837646, 15.737311363220215, 1.4949493408203125, 
155, 673311505, -157.01002502441406, -81.16268920898438, -91.25623321533203, 9.976995468139648, -0.3762960731983185, -0.3782449960708618, 3.5235204696655273, 16.430587768554688, 1.4757643938064575, 
156, 673319838, -156.51953125, -81.31502532958984, -91.72225189208984, 9.95923137664795, -0.3924497067928314, -0.3467680513858795, 3.526824712753296, 17.157135009765625, 1.5617256164550781, 
157, 673328171, -156.0238800048828, -81.44599914550781, -92.19357299804688, 9.97797966003418, -0.39371198415756226, -0.3728134334087372, 3.5748257637023926, 17.972667694091797, 1.496255874633789, 
158, 673336504, -155.4628143310547, -81.60950469970703, -92.7301254272461, 9.981199264526367, -0.3756670355796814, -0.34200403094291687, 3.5581507682800293, 18.66745376586914, 1.5569616556167603, 
159, 673344837, -154.89088439941406, -81.75006866455078, -93.27869415283203, 9.979656219482422, -0.3958268463611603, -0.37711265683174133, 3.5067949295043945, 19.468181610107422, 1.6299110651016235, 
160, 673353170, -154.2491455078125, -81.9225082397461, -93.89631652832031, 9.982504844665527, -0.39659613370895386, -0.3722476363182068, 3.5622239112854004, 20.007770538330078, 1.601095199584961, 
161, 673361503, -153.60147094726562, -82.07000732421875, -94.52044677734375, 10.000289916992188, -0.39104798436164856, -0.37445634603500366, 3.5547192096710205, 20.623897552490234, 1.6611348390579224, 
162, 673369836, -152.8760986328125, -82.24994659423828, -95.22161865234375, 9.970559120178223, -0.3884819746017456, -0.38299888372421265, 3.596137762069702, 21.169403076171875, 1.5253794193267822, 
163, 673378169, -152.14511108398438, -82.40353393554688, -95.92858123779297, 9.990309715270996, -0.3813382089138031, -0.3633795976638794, 3.6468536853790283, 21.715450286865234, 1.6143889427185059, 
164, 673386502, -151.3219757080078, -82.5891342163086, -96.72712707519531, 10.019299507141113, -0.3988688588142395, -0.39583390951156616, 3.675029754638672, 22.204301834106445, 1.4922093152999878, 
165, 673394835, -150.48727416992188, -82.74685668945312, -97.53819274902344, 9.987485885620117, -0.40677618980407715, -0.3721636235713959, 3.645573377609253, 22.71294593811035, 1.7215336561203003, 
166, 673403168, -149.54312133789062, -82.93600463867188, -98.4578857421875, 9.995288848876953, -0.38833677768707275, -0.37136730551719666, 3.6621456146240234, 23.14180564880371, 1.6114178895950317, 
167, 673411501, -148.60276794433594, -83.09703826904297, -99.37487030029297, 10.012258529663086, -0.39587661623954773, -0.39349907636642456, 3.613708734512329, 23.56997299194336, 1.622047781944275, 
168, 673419834, -147.5245361328125, -83.28791046142578, -100.42990112304688, 10.013772964477539, -0.3934781849384308, -0.4324881434440613, 3.605743169784546, 23.97268295288086, 1.6635429859161377, 
169, 673428167, -146.4635009765625, -83.44860076904297, -101.46711730957031, 9.987632751464844, -0.39519360661506653, -0.39633050560951233, 3.6968536376953125, 24.10685157775879, 1.630398154258728, 
170, 673436500, -145.25076293945312, -83.63702392578125, -102.65426635742188, 10.004448890686035, -0.4085264205932617, -0.3964245617389679, 3.7296910285949707, 24.256437301635742, 1.6713042259216309, 
171, 673444833, -144.0519561767578, -83.79528045654297, -103.82962036132812, 9.999558448791504, -0.423184335231781, -0.3524404466152191, 3.6777961254119873, 24.527538299560547, 1.6811399459838867, 
172, 673453166, -142.6766815185547, -83.9807357788086, -105.1802978515625, 10.005226135253906, -0.4278869032859802, -0.38420113921165466, 3.6419107913970947, 24.730146408081055, 1.666078805923462, 
173, 673461499, -141.32553100585938, -84.134521484375, -106.5080795288086, 10.008655548095703, -0.4078104496002197, -0.38282841444015503, 3.666551351547241, 24.787137985229492, 1.7190489768981934, 
174, 673469832, -139.78225708007812, -84.3133544921875, -108.03138732910156, 10.0088472366333, -0.39921948313713074, -0.4321616291999817, 3.681920289993286, 24.80112075805664, 1.642385482788086, 
175, 673478165, -138.27481079101562, -84.46118927001953, -109.51426696777344, 9.974729537963867, -0.401398628950119, -0.38283607363700867, 3.796210765838623, 24.88065528869629, 1.5965360403060913, 
176, 673486498, -136.53292846679688, -84.6312255859375, -111.22808837890625, 9.986735343933105, -0.3925419747829437, -0.4021502435207367, 3.6799728870391846, 24.89259147644043, 1.728270173072815, 
177, 673494831, -134.84683227539062, -84.7696533203125, -112.88997650146484, 9.992034912109375, -0.3890219032764435, -0.39933884143829346, 3.7410888671875, 24.80714225769043, 1.6802432537078857, 
178, 673503164, -132.90367126464844, -84.92908477783203, -114.81306457519531, 9.99692153930664, -0.4038800597190857, -0.39675620198249817, 3.7001571655273438, 24.794462203979492, 1.681882619857788, 
179, 673511497, -131.0330352783203, -85.05652618408203, -116.6588363647461, 9.98011589050293, -0.3972483277320862, -0.38833510875701904, 3.795314073562622, 24.6428279876709, 1.6692548990249634, 
180, 673519830, -128.88720703125, -85.20130920410156, -118.77891540527344, 9.995162963867188, -0.4173591434955597, -0.3997596800327301, 3.6778476238250732, 24.43422508239746, 1.7030915021896362, 
181, 673528163, -126.83963012695312, -85.31483459472656, -120.8024673461914, 9.978683471679688, -0.40330132842063904, -0.39094722270965576, 3.710684299468994, 24.248313903808594, 1.6720725297927856, 
182, 673536496, -124.50818634033203, -85.44327545166016, -123.10874938964844, 9.970599174499512, -0.4042879343032837, -0.4247889518737793, 3.636863946914673, 23.84066390991211, 1.6732761859893799, 
183, 673544829, -122.3188705444336, -85.54012298583984, -125.27378845214844, 9.957523345947266, -0.3954734802246094, -0.41271817684173584, 3.700695037841797, 23.47743034362793, 1.6548341512680054, 
184, 673553162, -119.82096099853516, -85.65007781982422, -127.74813079833984, 9.960465431213379, -0.40558773279190063, -0.37978872656822205, 3.6280782222747803, 23.153356552124023, 1.6539117097854614, 
185, 673561495, -117.48765563964844, -85.7298812866211, -130.05728149414062, 9.93819522857666, -0.3964727520942688, -0.38987812399864197, 3.6661925315856934, 22.883638381958008, 1.6962778568267822, 
186, 673569828, -114.86136627197266, -85.82073974609375, -132.65829467773438, 9.960643768310547, -0.39329931139945984, -0.40741074085235596, 3.652437686920166, 22.33616065979004, 1.5715364217758179, 
187, 673578161, -112.45327758789062, -85.8823013305664, -135.0419921875, 9.949209213256836, -0.38215020298957825, -0.412627249956131, 3.6445484161376953, 21.928020477294922, 1.6610068082809448, 
188, 673586494, -109.7586669921875, -85.95233154296875, -137.7119903564453, 9.93718433380127, -0.4025656282901764, -0.42137643694877625, 3.6419870853424072, 21.261640548706055, 1.6393628120422363, 
189, 673594827, -107.3360824584961, -85.99532318115234, -140.11074829101562, 9.944361686706543, -0.39620816707611084, -0.41125115752220154, 3.5983657836914062, 20.814851760864258, 1.6271190643310547, 
190, 673603160, -104.64042663574219, -86.04601287841797, -142.78253173828125, 9.931082725524902, -0.40173861384391785, -0.42139846086502075, 3.5524652004241943, 20.122934341430664, 1.5373926162719727, 
191, 673611493, -102.27022552490234, -86.07185363769531, -145.1282501220703, 9.930694580078125, -0.3890896439552307, -0.409124493598938, 3.5882225036621094, 19.532575607299805, 1.6181029081344604, 
192, 673619826, -99.64008331298828, -86.10298156738281, -147.73374938964844, 9.92939281463623, -0.39810916781425476, -0.4121101498603821, 3.490145683288574, 18.8231143951416, 1.6662319898605347, 
193, 673628159, -97.38094329833984, -86.1135482788086, -149.96800231933594, 9.912055015563965, -0.40459343791007996, -0.436937540769577, 3.5933966636657715, 18.173458099365234, 1.5647228956222534, 
194, 673636492, -94.89690399169922, -86.13001251220703, -152.42738342285156, 9.868080139160156, -0.3946075141429901, -0.4172636866569519, 3.4899399280548096, 17.33451271057129, 1.4493560791015625, 
195, 673644825, -92.81262969970703, -86.12738037109375, -154.4867706298828, 9.904342651367188, -0.39196038246154785, -0.4409363865852356, 3.5179364681243896, 16.607810974121094, 1.5729190111160278, 
196, 673653158, -90.52099609375, -86.13062286376953, -156.75396728515625, 9.866255760192871, -0.4108794629573822, -0.435167521238327, 3.4680912494659424, 15.757905960083008, 1.462906002998352, 
197, 673661491, -88.66110229492188, -86.11788940429688, -158.589599609375, 9.852117538452148, -0.40294232964515686, -0.40839943289756775, 3.410997152328491, 14.874419212341309, 1.5449228286743164, 
198, 673669824, -86.59918212890625, -86.11093139648438, -160.62635803222656, 9.873069763183594, -0.38544222712516785, -0.4407128691673279, 3.4169647693634033, 14.091057777404785, 1.4812968969345093, 
199, 673678157, -84.97338104248047, -86.09175109863281, -162.22674560546875, 9.858285903930664, -0.39637961983680725, -0.4610956609249115, 3.4614827632904053, 13.160724639892578, 1.4914404153823853, 
200, 673686490, -83.17671203613281, -86.07814025878906, -163.9976043701172, 9.857800483703613, -0.3680274188518524, -0.4106380343437195, 3.4238297939300537, 12.233643531799316, 1.471896767616272, 
201, 673694823, -81.8207015991211, -86.0545425415039, -165.32855224609375, 9.847566604614258, -0.39497002959251404, -0.444363534450531, 3.393399715423584, 11.193882942199707, 1.5078078508377075, 
202, 673703156, -80.29410552978516, -86.03815460205078, -166.8290557861328, 9.84285831451416, -0.3783043622970581, -0.4260198473930359, 3.396780252456665, 10.330503463745117, 1.4008681774139404, 
203, 673711489, -79.18746185302734, -86.01385498046875, -167.91053771972656, 9.821491241455078, -0.4136904180049896, -0.4221307933330536, 3.320988178253174, 9.324170112609863, 1.4029428958892822, 
204, 673719822, -77.927978515625, -85.99659729003906, -169.14437866210938, 9.822102546691895, -0.39472681283950806, -0.4188607335090637, 3.280287265777588, 8.407130241394043, 1.3965137004852295, 
205, 673728155, -77.08319091796875, -85.9735336303711, -169.96279907226562, 9.816082954406738, -0.3962459862232208, -0.441788911819458, 3.4033384323120117, 7.261098861694336, 1.3548908233642578, 
206, 673736488, -76.1051025390625, -85.95790100097656, -170.91452026367188, 9.812919616699219, -0.38512444496154785, -0.4302915036678314, 3.3093338012695312, 6.2607598304748535, 1.3773800134658813, 
207, 673744821, -75.51956939697266, -85.93803405761719, -171.47462463378906, 9.814932823181152, -0.377297967672348, -0.43185025453567505, 3.2183005809783936, 5.13129997253418, 1.28985595703125, 
208, 673753154, -74.81302642822266, -85.92700958251953, -172.15426635742188, 9.82044792175293, -0.41897299885749817, -0.43343058228492737, 3.317453145980835, 4.066720962524414, 1.2302517890930176, 
209, 673761487, -74.47283172607422, -85.91055297851562, -172.46768188476562, 9.811595916748047, -0.4038352966308594, -0.4254564642906189, 3.282182455062866, 3.046121597290039, 1.368543028831482, 
210, 673769820, -74.01759338378906, -85.90384674072266, -172.89610290527344, 9.809553146362305, -0.3956403136253357, -0.4304378032684326, 3.2191967964172363, 2.0154049396514893, 1.2325056791305542, 
211, 673778153, -73.90410614013672, -85.89239501953125, -172.98365783691406, 9.806580543518066, -0.39919307827949524, -0.4470590651035309, 3.136898994445801, 1.0334832668304443, 1.272284746170044, 
212, 673786486, -73.69623565673828, -85.890869140625, -173.16494750976562, 9.804401397705078, -0.3825923204421997, -0.42607781291007996, 3.1236047744750977, -0.05779852345585823, 1.2304567098617554, 
213, 673794819, -73.83541870117188, -85.88424682617188, -172.99868774414062, 9.805575370788574, -0.39488863945007324, -0.4384087920188904, 3.195119619369507, -1.2246294021606445, 1.3203625679016113, 
214, 673803152, -73.89303588867188, -85.88787078857422, -172.9145965576172, 9.812590599060059, -0.40308523178100586, -0.44119173288345337, 3.024195432662964, -2.2999658584594727, 1.30038321018219, 
215, 673811485, -74.27816772460938, -85.88734436035156, -172.50323486328125, 9.808320999145508, -0.38186895847320557, -0.4369395077228546, 3.017280101776123, -3.4641847610473633, 1.1878602504730225, 
216, 673819818, -74.5833740234375, -85.89625549316406, -172.17140197753906, 9.805804252624512, -0.3814638555049896, -0.4390317499637604, 2.991358518600464, -4.402945518493652, 1.2550718784332275, 
217, 673828151, -75.1942367553711, -85.89936065673828, -171.5335693359375, 9.787572860717773, -0.389695942401886, -0.425376832485199, 3.0338523387908936, -5.460660457611084, 1.2462093830108643, 
218, 673836484, -75.75930786132812, -85.91400146484375, -170.94117736816406, 9.806553840637207, -0.3824673891067505, -0.42511284351348877, 2.9867990016937256, -6.6031317710876465, 1.1224925518035889, 
219, 673844817, -76.61946105957031, -85.92186737060547, -170.05348205566406, 9.805855751037598, -0.3900994062423706, -0.4211553931236267, 3.037515163421631, -7.675266265869141, 1.0594558715820312, 
220, 673853150, -77.44181060791016, -85.93986511230469, -169.20362854003906, 9.846124649047852, -0.39404532313346863, -0.43457144498825073, 2.965385913848877, -8.682446479797363, 1.0838664770126343, 
221, 673861483, -78.5291748046875, -85.9487533569336, -168.0889892578125, 9.831404685974121, -0.38390493392944336, -0.46367087960243225, 2.930652618408203, -9.56039810180664, 1.10732901096344, 
222, 673869816, -79.60597229003906, -85.96837615966797, -166.98448181152344, 9.811286926269531, -0.38886845111846924, -0.4299629330635071, 2.9292185306549072, -10.655279159545898, 1.0544612407684326, 
223, 673878149, -80.96055603027344, -85.97791290283203, -165.60206604003906, 9.838287353515625, -0.3790232241153717, -0.4286045730113983, 2.924838066101074, -11.765552520751953, 1.0172948837280273, 
224, 673886482, -82.31571960449219, -85.99640655517578, -164.2198486328125, 9.822529792785645, -0.39312687516212463, -0.44825097918510437, 2.7811684608459473, -12.7481689453125, 1.093036413192749, 
225, 673894815, -83.91828155517578, -86.00354766845703, -162.58909606933594, 9.846956253051758, -0.3959878385066986, -0.449020117521286, 2.854963541030884, -13.742591857910156, 1.0040271282196045, 
226, 673903148, -85.52706909179688, -86.0191650390625, -160.95164489746094, 9.869421005249023, -0.41055867075920105, -0.4241728186607361, 2.9502739906311035, -14.633813858032227, 1.003028154373169, 
227, 673911481, -87.3468017578125, -86.02074432373047, -159.1031951904297, 9.849379539489746, -0.3901481032371521, -0.40385884046554565, 2.8688716888427734, -15.471269607543945, 0.9803337454795837, 
228, 673919814, -89.19457244873047, -86.03009796142578, -157.2273712158203, 9.840058326721191, -0.3845275044441223, -0.4319663941860199, 2.8203842639923096, -16.39684295654297, 0.9812816381454468, 
229, 673928147, -91.2336196899414, -86.02310180664062, -155.1600799560547, 9.874454498291016, -0.3886758089065552, -0.42952102422714233, 2.7692577838897705, -17.292415618896484, 0.9856358766555786, 
230, 673936480, -93.29060363769531, -86.0228042602539, -153.0741424560547, 9.874430656433105, -0.39564210176467896, -0.4019105136394501, 2.811034679412842, -18.0393009185791, 1.0053588151931763, 
231, 673944813, -95.5118408203125, -86.00443267822266, -150.82391357421875, 9.871758460998535, -0.3860664665699005, -0.4281013607978821, 2.800840139389038, -18.985517501831055, 0.9677828550338745, 
232, 673953146, -97.75552368164062, -85.99190521240234, -148.55230712890625, 9.890189170837402, -0.3784373700618744, -0.4304327666759491, 2.7609333992004395, -19.702001571655273, 0.9652983546257019, 
233, 673961479, -100.10220336914062, -85.96012878417969, -146.17718505859375, 9.90052604675293, -0.3827968239784241, -0.3966595530509949, 2.6495885848999023, -20.45316505432129, 0.9021337628364563, 
234, 673969812, -102.47711181640625, -85.93321990966797, -143.77340698242188, 9.925122261047363, -0.4104806184768677, -0.41897326707839966, 2.5768189430236816, -21.185504913330078, 0.8648650050163269, 
235, 673978145, -104.89656829833984, -85.88524627685547, -141.32513427734375, 9.940478324890137, -0.39686068892478943, -0.39075368642807007, 2.6783790588378906, -21.832082748413086, 0.8662481904029846, 
236, 673986478, -107.3322982788086, -85.84121704101562, -138.8660125732422, 9.928916931152344, -0.3923686742782593, -0.39091575145721436, 2.684014320373535, -22.479331970214844, 0.8482925891876221, 
237, 673994811, -109.76327514648438, -85.77468872070312, -136.4055633544922, 9.931564331054688, -0.4095194935798645, -0.4140380322933197, 2.7503042221069336, -23.104679107666016, 0.9175535440444946, 
238, 674003144, -112.20184326171875, -85.71212005615234, -133.93434143066406, 9.930928230285645, -0.39324650168418884, -0.38862887024879456, 2.777942180633545, -23.70771598815918, 0.8737532496452332, 
239, 674011477, -114.58345794677734, -85.62798309326172, -131.52345275878906, 9.93445873260498, -0.403249055147171, -0.3994573950767517, 2.6642661094665527, -24.164827346801758, 0.8271352052688599, 
240, 674019810, -116.96686553955078, -85.5470199584961, -129.11572265625, 9.962225914001465, -0.380571186542511, -0.4222314655780792, 2.6106300354003906, -24.762357711791992, 0.8473193645477295, 
241, 674028143, -119.24715423583984, -85.44361877441406, -126.806640625, 9.948322296142578, -0.3914247751235962, -0.40081435441970825, 2.6377298831939697, -25.142627716064453, 0.90105801820755, 
242, 674036476, -121.51256561279297, -85.34407043457031, -124.52548217773438, 9.95604419708252, -0.3807569742202759, -0.408559113740921, 2.7200794219970703, -25.57978630065918, 0.9010837078094482, 
243, 674044809, -123.66275024414062, -85.22357177734375, -122.34552001953125, 9.968422889709473, -0.3778010308742523, -0.4342566132545471, 2.6832971572875977, -26.01845359802246, 0.8328472971916199, 
244, 674053142, -125.78813934326172, -85.10791778564453, -120.184326171875, 9.977431297302246, -0.4026145935058594, -0.40010327100753784, 2.618237257003784, -26.26565933227539, 0.7969873547554016, 
245, 674061475, -127.77130126953125, -84.97203826904297, -118.17111206054688, 9.980142593383789, -0.3820369243621826, -0.40739163756370544, 2.6848857402801514, -26.607328414916992, 0.7956811189651489, 
246, 674069808, -129.73289489746094, -84.84156036376953, -116.17892456054688, 9.970342636108398, -0.3934732973575592, -0.3787487745285034, 2.6588876247406006, -26.804916381835938, 0.7534945011138916, 
247, 674078141, -131.5334014892578, -84.69053649902344, -114.34918212890625, 9.997955322265625, -0.4118080139160156, -0.39382442831993103, 2.566009998321533, -27.1195125579834, 0.9597148299217224, 
248, 674086474, -133.318603515625, -84.5467758178711, -112.54472351074219, 9.999763488769531, -0.40429165959358215, -0.38782450556755066, 2.5543301105499268, -27.17896270751953, 0.7899178862571716, 
249, 674094807, -134.94061279296875, -84.385986328125, -110.89278411865234, 10.01630687713623, -0.403097540140152, -0.38431310653686523, 2.665956974029541, -27.267253875732422, 0.7858707904815674, 
250, 674103140, -136.54684448242188, -84.23170471191406, -109.25669860839844, 9.993155479431152, -0.3849683701992035, -0.3773469924926758, 2.6138575077056885, -27.354137420654297, 0.8337950706481934, 
251, 674111473, -138.0055694580078, -84.06181335449219, -107.76898956298828, 10.016416549682617, -0.36598241329193115, -0.37804320454597473, 2.568878650665283, -27.43568992614746, 0.7009595632553101, 
252, 674119806, -139.44796752929688, -83.89957427978516, -106.29712677001953, 10.005675315856934, -0.4186296761035919, -0.37308216094970703, 2.6464641094207764, -27.413816452026367, 0.800701379776001, 
253, 674128139, -140.73501586914062, -83.72264862060547, -104.98112487792969, 9.99521255493164, -0.37768012285232544, -0.3720443844795227, 2.547593832015991, -27.33049774169922, 0.826392650604248, 
254, 674136472, -142.02342224121094, -83.55506134033203, -103.66426086425781, 10.015945434570312, -0.38336873054504395, -0.3643352687358856, 2.5932633876800537, -27.23999786376953, 0.7502925992012024, 
255, 674144805, -143.16136169433594, -83.37327575683594, -102.49723815917969, 9.995370864868164, -0.3955608904361725, -0.3935859203338623, 2.572772264480591, -27.13544464111328, 0.8581031560897827, 
256, 674153138, -144.2977294921875, -83.20286560058594, -101.33231353759766, 10.004464149475098, -0.38355007767677307, -0.3953893482685089, 2.598719835281372, -26.836118698120117, 0.8360493183135986, 
257, 674161471, -145.3001251220703, -83.02017974853516, -100.30070495605469, 10.011008262634277, -0.3909209370613098, -0.3908584415912628, 2.6156246662139893, -26.590444564819336, 0.7694519758224487, 
258, 674169804, -146.30592346191406, -82.84821319580078, -99.2677993774414, 9.991798400878906, -0.3977634310722351, -0.36045441031455994, 2.4611711502075195, -26.381362915039062, 0.9076924324035645, 
259, 674178137, -147.1873321533203, -82.66580963134766, -98.35692596435547, 9.989212989807129, -0.37269121408462524, -0.3646944463253021, 2.6616787910461426, -25.988920211791992, 0.7536735534667969, 
260, 674186470, -148.0787811279297, -82.49475860595703, -97.43775177001953, 10.013847351074219, -0.4039018154144287, -0.36701151728630066, 2.5832483768463135, -25.776939392089844, 0.8857920169830322, 
261, 674194803, -148.8485870361328, -82.31398010253906, -96.63853454589844, 10.00523567199707, -0.398851603269577, -0.3698444366455078, 2.6737945079803467, -25.254995346069336, 0.8276988863945007, 
262, 674203136, -149.63499450683594, -82.14757537841797, -95.823486328125, 9.975616455078125, -0.3719738721847534, -0.38176026940345764, 2.7030200958251953, -24.83663558959961, 0.8022637963294983, 
263, 674211469, -150.3019561767578, -81.97196960449219, -95.12687683105469, 10.017660140991211, -0.3955770432949066, -0.34646862745285034, 2.7603962421417236, -24.155656814575195, 0.8354342579841614, 
264, 674219802, -150.98828125, -81.8121566772461, -94.41289520263672, 9.942248344421387, -0.38089892268180847, -0.336040735244751, 2.6317102909088135, -23.649005889892578, 0.8343072533607483, 
265, 674228135, -151.57394409179688, -81.64102172851562, -93.79863739013672, 9.990626335144043, -0.3812580108642578, -0.36144766211509705, 2.6669552326202393, -23.247425079345703, 0.8602544665336609, 
266, 674236468, -152.1737823486328, -81.48802185058594, -93.17098999023438, 10.001838684082031, -0.3947278559207916, -0.38400715589523315, 2.7004332542419434, -22.51670265197754, 0.8945263028144836, 
267, 674244801, -152.68655395507812, -81.32445526123047, -92.62918853759766, 9.95753002166748, -0.4009152352809906, -0.35194480419158936, 2.7569122314453125, -22.034997940063477, 0.7684785723686218, 
268, 674253134, -153.2147216796875, -81.18013763427734, -92.07279968261719, 9.986323356628418, -0.3969598114490509, -0.3624366521835327, 2.7811436653137207, -21.280763626098633, 0.8336669206619263, 
269, 674261467, -153.64999389648438, -81.02526092529297, -91.60957336425781, 9.977169036865234, -0.3883521556854248, -0.3605213761329651, 2.697282314300537, -20.60511016845703, 0.9215493202209473, 
270, 674269800, -154.1088409423828, -80.89105224609375, -91.12366485595703, 9.979846000671387, -0.3836728632450104, -0.32771173119544983, 2.7050178050994873, -19.851078033447266, 0.8764424920082092, 
271, 674278133, -154.479736328125, -80.74645233154297, -90.72478485107422, 9.969494819641113, -0.36653080582618713, -0.3856486976146698, 2.744053840637207, -19.09642791748047, 0.9521326422691345, 
272, 674286466, -154.86819458007812, -80.62248229980469, -90.30912780761719, 9.977142333984375, -0.38582319021224976, -0.34801772236824036, 2.7834739685058594, -18.38148307800293, 1.0975701808929443, 
273, 674294799, -155.1822509765625, -80.48957061767578, -89.9671401977539, 9.95533561706543, -0.38456395268440247, -0.34379667043685913, 2.803427219390869, -17.450763702392578, 0.9429882168769836, 
274, 674303132, -155.5131378173828, -80.3797836303711, -89.60952758789062, 9.9611177444458, -0.3843700587749481, -0.33905118703842163, 2.7717936038970947, -16.569761276245117, 1.0668842792510986, 
275, 674311465, -155.7689971923828, -80.25959014892578, -89.32711791992188, 9.96545124053955, -0.39355310797691345, -0.36157089471817017, 2.7187721729278564, -15.643526077270508, 1.071392297744751, 
276, 674319798, -156.05145263671875, -80.16399383544922, -89.01815032958984, 9.971562385559082, -0.3913344144821167, -0.352760374546051, 2.82340669631958, -14.78834342956543, 0.9913991689682007, 
277, 674328131, -156.2612762451172, -80.05841827392578, -88.78092193603516, 9.944994926452637, -0.3988618552684784, -0.3694114685058594, 2.8674633502960205, -13.732231140136719, 0.9730849862098694, 
278, 674336464, -156.4917755126953, -79.97871398925781, -88.5248794555664, 9.930319786071777, -0.4062454402446747, -0.3664250671863556, 2.7830896377563477, -12.770734786987305, 1.026388168334961, 
279, 674344797, -156.6525421142578, -79.88676452636719, -88.3364028930664, 9.94168472290039, -0.36795732378959656, -0.3588225841522217, 2.972224712371826, -11.874310493469238, 1.0933693647384644, 
280, 674353130, -156.83981323242188, -79.82115936279297, -88.12284851074219, 9.927373886108398, -0.38666361570358276, -0.3405528664588928, 2.9323816299438477, -11.022112846374512, 1.047276496887207, 
281, 674361463, -156.95816040039062, -79.7445297241211, -87.97782897949219, 9.924229621887207, -0.3839704692363739, -0.3374974727630615, 2.9194083213806152, -9.857420921325684, 1.1074827909469604, 
282, 674369796, -157.09866333007812, -79.69599914550781, -87.81086730957031, 9.931884765625, -0.4015806317329407, -0.35664403438568115, 3.036363124847412, -8.906391143798828, 1.0828163623809814, 
283, 674378129, -157.17938232421875, -79.63475799560547, -87.70313262939453, 9.947985649108887, -0.39612117409706116, -0.3391420841217041, 3.023632049560547, -7.865426540374756, 1.0620173215866089, 
284, 674386462, -157.27734375, -79.60359954833984, -87.57936096191406, 9.919928550720215, -0.3888193964958191, -0.3582678735256195, 3.026500940322876, -6.774849891662598, 1.0963916778564453, 
285, 674394795, -157.3155517578125, -79.5588607788086, -87.51526641845703, 9.928620338439941, -0.37867608666419983, -0.3454524278640747, 2.978576898574829, -5.686219215393066, 1.1353508234024048, 
286, 674403128, -157.37216186523438, -79.54497528076172, -87.43292236328125, 9.941161155700684, -0.390887975692749, -0.3446120321750641, 3.087270975112915, -4.658614635467529, 1.1193037033081055, 
287, 674411461, -157.36585998535156, -79.51669311523438, -87.41336822509766, 9.926828384399414, -0.41602039337158203, -0.32195886969566345, 3.0603888034820557, -3.5084972381591797, 1.2680583000183105, 
288, 674419794, -157.37786865234375, -79.52019500732422, -87.37637329101562, 9.941433906555176, -0.4064365029335022, -0.33240270614624023, 3.0631935596466064, -2.5071468353271484, 1.244992733001709, 
289, 674428127, -157.33665466308594, -79.5088119506836, -87.39202880859375, 9.925946235656738, -0.4124947488307953, -0.3426249325275421, 3.098170042037964, -1.3420195579528809, 1.1978754997253418, 
290, 674436460, -157.30665588378906, -79.52965545654297, -87.39703369140625, 9.923053741455078, -0.37501996755599976, -0.3268190920352936, 3.1635890007019043, -0.3567679226398468, 1.2919821739196777, 
291, 674444793, -157.22569274902344, -79.53429412841797, -87.45198059082031, 9.942156791687012, -0.38586556911468506, -0.30606788396835327, 3.229097366333008, 0.7491779923439026, 1.25406014919281, 
292, 674453126, -157.15774536132812, -79.57323455810547, -87.49478912353516, 9.927362442016602, -0.4158337414264679, -0.34714576601982117, 3.226714849472046, 1.809556007385254, 1.2261148691177368, 
293, 674461459, -157.04006958007812, -79.59426879882812, -87.5868911743164, 9.947704315185547, -0.3891257345676422, -0.3321286737918854, 3.2564914226531982, 2.869511604309082, 1.224949598312378, 
294, 674469792, -156.9246368408203, -79.65000915527344, -87.67721557617188, 9.941961288452148, -0.3798940181732178, -0.3414256274700165, 3.3140721321105957, 3.937394618988037, 1.3685171604156494, 
295, 674478125, -156.7648468017578, -79.68695068359375, -87.81234741210938, 9.930405616760254, -0.3932071030139923, -0.33777424693107605, 3.2218611240386963, 4.975770473480225, 1.3063005208969116, 
296, 674486458, -156.6112060546875, -79.76046752929688, -87.9417953491211, 9.946163177490234, -0.386311799287796, -0.35418379306793213, 3.2665576934814453, 6.0846357345581055, 1.2577868700027466, 
297, 674494791, -156.40406799316406, -79.8125, -88.12423706054688, 9.929959297180176, -0.3827306032180786, -0.34818264842033386, 3.310051202774048, 7.0199408531188965, 1.451661467552185, 
298, 674503124, -156.20184326171875, -79.90178680419922, -88.30199432373047, 9.930707931518555, -0.3816460967063904, -0.36531391739845276, 3.3545680046081543, 8.076244354248047, 1.358809471130371, 
299, 674511457, -155.95263671875, -79.9688949584961, -88.52613067626953, 9.92811107635498, -0.38814401626586914, -0.3704953193664551, 3.4172208309173584, 8.995104789733887, 1.4197970628738403, 
300, 674519790, -155.7050018310547, -80.07353973388672, -88.75006866455078, 9.947614669799805, -0.3727690279483795, -0.3584654629230499, 3.3436310291290283, 10.021748542785645, 1.338523030281067, 
301, 674528123, -155.41075134277344, -80.15593719482422, -89.02030181884766, 9.931720733642578, -0.39985278248786926, -0.35328856110572815, 3.356719732284546, 11.02334213256836, 1.3699517250061035, 
302, 674536456, -155.106201171875, -80.27567291259766, -89.30094909667969, 9.939697265625, -0.39063024520874023, -0.38300588726997375, 3.4325900077819824, 11.986516952514648, 1.4351916313171387, 
303, 674544789, -154.7586669921875, -80.37112426757812, -89.6241226196289, 9.95213508605957, -0.399069219827652, -0.3404827117919922, 3.477158308029175, 12.847896575927734, 1.4476654529571533, 
304, 674553122, -154.3973846435547, -80.50431823730469, -89.96133422851562, 9.952527046203613, -0.3809785544872284, -0.3462952971458435, 3.48891544342041, 13.744678497314453, 1.486163854598999, 
305, 674561455, -153.9939422607422, -80.61260986328125, -90.34019470214844, 9.95880126953125, -0.3917411267757416, -0.3559875786304474, 3.5604050159454346, 14.646965026855469, 1.4602677822113037, 
306, 674569788, -153.5732421875, -80.75709533691406, -90.73693084716797, 9.96865177154541, -0.38597729802131653, -0.38956642150878906, 3.5483150482177734, 15.298718452453613, 1.536649465560913, 
307, 674578121, -153.1085968017578, -80.87601470947266, -91.17801666259766, 9.964787483215332, -0.37442246079444885, -0.36097273230552673, 3.498661756515503, 16.225250244140625, 1.5589979887008667, 
308, 674586454, -152.623046875, -81.03276824951172, -91.63996124267578, 9.97872257232666, -0.40419110655784607, -0.34238964319229126, 3.5582408905029297, 16.975187301635742, 1.4719096422195435, 
309, 674594787, -152.09519958496094, -81.16202545166016, -92.14436340332031, 9.972495079040527, -0.40261369943618774, -0.36725398898124695, 3.5393505096435547, 17.7628116607666, 1.5150567293167114, 
310, 674603120, -151.5330810546875, -81.3293228149414, -92.68318176269531, 9.99722957611084, -0.39816468954086304, -0.3502221703529358, 3.558356523513794, 18.509750366210938, 1.5093706846237183, 
311, 674611453, -150.93865966796875, -81.46624755859375, -93.25508880615234, 9.994307518005371, -0.3745201826095581, -0.37262392044067383, 3.471677541732788, 19.009559631347656, 1.5088582038879395, 
312, 674619786, -150.2921600341797, -81.64093017578125, -93.8785400390625, 10.005708694458008, -0.40987539291381836, -0.3749348521232605, 3.5686028003692627, 19.75065803527832, 1.6256083250045776, 
313, 674628119, -149.6141815185547, -81.78570556640625, -94.53225708007812, 9.982592582702637, -0.4003038704395294, -0.38377851247787476, 3.7333784103393555, 20.355998992919922, 1.5099084377288818, 
314, 674636452, -148.87661743164062, -81.9675064086914, -95.24662780761719, 9.985729217529297, -0.39336130023002625, -0.36418187618255615, 3.6186013221740723, 20.97701644897461, 1.6020430326461792, 
315, 674644785, -148.10748291015625, -82.11643981933594, -95.99281311035156, 9.991668701171875, -0.39469632506370544, -0.372403621673584, 3.604513168334961, 21.353059768676758, 1.6602641344070435, 
316, 674653118, -147.27577209472656, -82.30259704589844, -96.80213165283203, 10.010075569152832, -0.37168627977371216, -0.3746143579483032, 3.5472400188446045, 21.898616790771484, 1.5531452894210815, 
317, 674661451, -146.41026306152344, -82.45527648925781, -97.64453887939453, 9.99713134765625, -0.3894561231136322, -0.38607218861579895, 3.6557679176330566, 22.29228401184082, 1.6435893774032593, 
318, 674669784, -145.45950317382812, -82.64411163330078, -98.5718002319336, 10.00536060333252, -0.39559024572372437, -0.36190176010131836, 3.702514171600342, 22.798547744750977, 1.637160301208496, 
319, 674678117, -144.4805908203125, -82.79949188232422, -99.52830505371094, 10.006850242614746, -0.38798603415489197, -0.37042292952537537, 3.616090774536133, 23.230403900146484, 1.6451259851455688, 
320, 674686450, -143.40223693847656, -82.98966979980469, -100.58445739746094, 10.006162643432617, -0.39099395275115967, -0.3880977928638458, 3.587172746658325, 23.588594436645508, 1.6320884227752686, 
321, 674694783, -142.31201171875, -83.1440200805664, -101.65122985839844, 10.00007152557373, -0.394140362739563, -0.3717346787452698, 3.73939847946167, 23.69131088256836, 1.5858038663864136, 
322, 674703116, -141.10105895996094, -83.33155822753906, -102.83930969238281, 10.003707885742188, -0.39222508668899536, -0.39131224155426025, 3.691833019256592, 23.952880859375, 1.6341890096664429, 
323, 674711449, -139.8780975341797, -83.48326873779297, -104.03960418701172, 10.007699012756348, -0.3819974362850189, -0.3804309368133545, 3.6641693115234375, 24.152544021606445, 1.6314226388931274, 
324, 674719782, -138.50753784179688, -83.66748046875, -105.38766479492188, 10.00253677368164, -0.4124735891819, -0.3831104636192322, 3.658355236053467, 24.43286895751953, 1.6783993244171143, 
325, 674728115, -137.13345336914062, -83.81382751464844, -106.73875427246094, 9.997743606567383, -0.40502744913101196, -0.39165663719177246, 3.7129130363464355, 24.459993362426758, 1.7682796716690063, 
326, 674736448, -135.60678100585938, -83.99149322509766, -108.24507904052734, 9.998075485229492, -0.4001508057117462, -0.3791605532169342, 3.6668076515197754, 24.52333641052246, 1.6095737218856812, 
327, 674744781, -134.08401489257812, -84.13175201416016, -109.74451446533203, 9.992151260375977, -0.3903321921825409, -0.3972010910511017, 3.7666265964508057, 24.634761810302734, 1.6541427373886108, 
328, 674753114, -132.37998962402344, -84.30013275146484, -111.42446899414062, 10.00759220123291, -0.38582324981689453, -0.3935975730419159, 3.6815104484558105, 24.524669647216797, 1.6613401174545288, 
329, 674761447, -130.7005615234375, -84.43049621582031, -113.08113098144531, 10.006979942321777, -0.3931517004966736, -0.36442309617996216, 3.6580469608306885, 24.527050018310547, 1.7179986238479614, 
330, 674769780, -128.8217315673828, -84.58695220947266, -114.93800354003906, 9.981709480285645, -0.40050676465034485, -0.4158719778060913, 3.685915946960449, 24.30261993408203, 1.6467912197113037, 
331, 674778113, -126.99878692626953, -84.70557403564453, -116.73816680908203, 9.979902267456055, -0.39388373494148254, -0.382018119096756, 3.6531548500061035, 24.182025909423828, 1.6405155658721924, 
332, 674786446, -124.94049835205078, -84.84915924072266, -118.7798080444336, 9.976594924926758, -0.40189695358276367, -0.41857603192329407, 3.672673463821411, 24.027854919433594, 1.6016079187393188, 
333, 674794779, -122.97601318359375, -84.95352172851562, -120.72151947021484, 9.988105773925781, -0.39197930693626404, -0.42976197600364685, 3.664271354675293, 23.708446502685547, 1.647713303565979, 
334, 674803112, -120.7547836303711, -85.08036041259766, -122.92041778564453, 9.972575187683105, -0.3898695111274719, -0.3839147388935089, 3.6606605052948, 23.440673828125, 1.6816010475158691, 
335, 674811445, -118.66356658935547, -85.16981506347656, -124.9891586303711, 9.957382202148438, -0.3960939943790436, -0.39083001017570496, 3.5494942665100098, 23.151897430419922, 1.6389275789260864, 
336, 674819778, -116.30792999267578, -85.2789306640625, -127.31211853027344, 9.95953369140625, -0.40795138478279114, -0.41539350152015686, 3.6943178176879883, 22.71440887451172, 1.6424881219863892, 
337, 674828111, -114.12562561035156, -85.3520278930664, -129.47140502929688, 9.952441215515137, -0.3899589478969574, -0.4084550142288208, 3.635686159133911, 22.39312744140625, 1.562392234802246, 
338, 674836444, -111.67344665527344, -85.4430160522461, -131.896728515625, 9.956214904785156, -0.39801162481307983, -0.4217549264431, 3.661095380783081, 21.839935302734375, 1.5773252248764038, 
339, 674844777, -109.45025634765625, -85.49932861328125, -134.0963897705078, 9.941335678100586, -0.39696991443634033, -0.4213937520980835, 3.627643346786499, 21.38179588317871, 1.5039660930633545, 
340, 674853110, -106.94709014892578, -85.5711898803711, -136.56732177734375, 9.929607391357422, -0.39255475997924805, -0.41115230321884155, 3.6207780838012695, 20.815645217895508, 1.5718438625335693, 
341, 674861443, -104.721923828125, -85.6094741821289, -138.7689971923828, 9.938366889953613, -0.40523219108581543, -0.4181710481643677, 3.620471239089966, 20.28510093688965, 1.6141072511672974, 
342, 674869776, -102.21867370605469, -85.6630630493164, -141.2468719482422, 9.933513641357422, -0.379462331533432, -0.4350547194480896, 3.6845836639404297, 19.690719604492188, 1.5848557949066162, 
343, 674878109, -100.04049682617188, -85.6851577758789, -143.40081787109375, 9.907735824584961, -0.39631137251853943, -0.4491117596626282, 3.6329195499420166, 19.117525100708008, 1.6716625690460205, 
344, 674886442, -97.60429382324219, -85.72162628173828, -145.8118438720703, 9.916467666625977, -0.37696442008018494, -0.4324255883693695, 3.5558204650878906, 18.36566925048828, 1.5777860879898071, 
345, 674894775, -95.55362701416016, -85.73060607910156, -147.83787536621094, 9.896286964416504, -0.3796835243701935, -0.41717252135276794, 3.6011314392089844, 17.59042739868164, 1.5285297632217407, 
346, 674903108, -93.23040771484375, -85.75241088867188, -150.1365203857422, 9.897351264953613, -0.3824121356010437, -0.393945574760437, 3.5792577266693115, 16.972740173339844, 1.5477663278579712, 
347, 674911441, -91.31135559082031, -85.75010681152344, -152.03199768066406, 9.894245147705078, -0.3843092620372772, -0.4483843147754669, 3.435535430908203, 16.28650665283203, 1.4687716960906982, 
348, 674919774, -89.15546417236328, -85.75979614257812, -154.16346740722656, 9.87207317352295, -0.3843907117843628, -0.433511346578598, 3.420064687728882, 15.382298469543457, 1.4939249753952026, 
349, 674928107, -87.43974304199219, -85.74798583984375, -155.85536193847656, 9.871491432189941, -0.38480469584465027, -0.43450963497161865, 3.413379669189453, 14.516436576843262, 1.490057349205017, 
350, 674936440, -85.46684265136719, -85.74890899658203, -157.8023681640625, 9.873641014099121, -0.3862982988357544, -0.40855672955513, 3.481153964996338, 13.821237564086914, 1.4491766691207886, 
351, 674944773, -83.95072174072266, -85.73120880126953, -159.2932586669922, 9.865817070007324, -0.3898221552371979, -0.4343479573726654, 3.5132744312286377, 12.869797706604004, 1.424843192100525, 
352, 674953106, -82.20931243896484, -85.7251968383789, -161.00885009765625, 9.84308910369873, -0.39529070258140564, -0.4234803318977356, 3.418527603149414, 11.94558334350586, 1.481425166130066, 
353, 674961439, -80.91534423828125, -85.70321655273438, -162.27676391601562, 9.84839916229248, -0.39365115761756897, -0.41469863057136536, 3.5331506729125977, 11.0682954788208, 1.4931305646896362, 
354, 674969772, -79.40625762939453, -85.69343566894531, -163.75961303710938, 9.824031829833984, -0.3897669315338135, -0.4398201107978821, 3.439300298690796, 10.084734916687012, 1.512085199356079, 
355, 674978105, -78.33876037597656, -85.67048645019531, -164.8019561767578, 9.861279487609863, -0.3866298496723175, -0.4217360317707062, 3.3697574138641357, 9.197354316711426, 1.4319381713867188, 
356, 674986438, -77.0634536743164, -85.66053771972656, -166.05149841308594, 9.837874412536621, -0.4128238558769226, -0.4407466650009155, 3.3254964351654053, 8.161463737487793, 1.4003304243087769, 
357, 674994771, -76.2412338256836, -85.63946533203125, -166.84812927246094, 9.841501235961914, -0.3829314410686493, -0.45921945571899414, 3.334845781326294, 7.054853439331055, 1.3347322940826416, 
358, 675003104, -75.22132873535156, -85.63192749023438, -167.8417510986328, 9.812674522399902, -0.3770516812801361, -0.44809940457344055, 3.3011112213134766, 5.962993621826172, 1.3103986978530884, 
359, 675011437, -74.62932586669922, -85.61322784423828, -168.407470703125, 9.810236930847168, -0.3907317519187927, -0.4216163158416748, 3.349189519882202, 4.996159553527832, 1.3754844665527344, 
360, 675019770, -73.8351821899414, -85.60894012451172, -169.17587280273438, 9.829030990600586, -0.3987210988998413, -0.4196777939796448, 3.211308002471924, 3.975456953048706, 1.2378591299057007, 
361, 675028103, -73.45696258544922, -85.59432983398438, -169.52821350097656, 9.824784278869629, -0.3870464563369751, -0.4340921938419342, 3.190509557723999, 3.0154871940612793, 1.3568885326385498, 
362, 675036436, -72.88448333740234, -85.59432983398438, -170.07383728027344, 9.823079109191895, -0.38080742955207825, -0.42644360661506653, 3.2497034072875977, 1.9655593633651733, 1.2094272375106812, 
363, 675044769, -72.73815155029297, -85.5863037109375, -170.19406127929688, 9.808174133300781, -0.40459585189819336, -0.4183162450790405, 3.1570827960968018, 0.7421212792396545, 1.169699788093567, 
364, 675053102, -72.3987808227539, -85.59127044677734, -170.5063934326172, 9.806316375732422, -0.3859999477863312, -0.44022250175476074, 3.1856679916381836, -0.16829831898212433, 1.2530484199523926, 
365, 675061435, -72.4626693725586, -85.58776092529297, -170.4167022705078, 9.807432174682617, -0.37466222047805786, -0.4282780885696411, 3.0567259788513184, -1.272553563117981, 1.2247445583343506, 
366, 675069768, -72.3669204711914, -85.59873962402344, -170.4853973388672, 9.81557559967041, -0.3975203335285187, -0.45055708289146423, 3.090639352798462, -2.42598819732666, 1.2639343738555908, 
367, 675078101, -72.6517105102539, -85.59976196289062, -170.17372131347656, 9.82625961303711, -0.3939862847328186, -0.4170168936252594, 3.1101064682006836, -3.39064621925354, 1.325792908668518, 
368, 675086434, -72.77397918701172, -85.61590576171875, -170.02459716796875, 9.81145191192627, -0.3869462013244629, -0.4197045862674713, 3.0199949741363525, -4.4148054122924805, 1.2670338153839111, 
369, 675094767, -73.26937103271484, -85.62387084960938, -169.5019989013672, 9.83385944366455, -0.3931237459182739, -0.45172572135925293, 3.0552401542663574, -5.476848125457764, 1.088118314743042, 
370, 675103100, -73.63151550292969, -85.64603424072266, -169.1127471923828, 9.821735382080078, -0.38646313548088074, -0.4164593517780304, 2.9804983139038086, -6.597292423248291, 1.1776913404464722, 
371, 675111433, -74.3517074584961, -85.65819549560547, -168.36480712890625, 9.82754898071289, -0.4033527672290802, -0.4246859550476074, 3.0581860542297363, -7.56899356842041, 1.067780613899231, 
372, 675119766, -74.96038818359375, -85.68548583984375, -167.7279815673828, 9.827363967895508, -0.3946424722671509, -0.4509337246417999, 3.0604405403137207, -8.762259483337402, 1.0892199277877808, 
373, 675128099, -75.9244384765625, -85.70098876953125, -166.7357177734375, 9.8221435546875, -0.3897170424461365, -0.41735023260116577, 3.008340835571289, -9.75214672088623, 1.0573043823242188, 
374, 675136432, -76.77378845214844, -85.73116302490234, -165.85769653320312, 9.826631546020508, -0.3953382074832916, -0.43040263652801514, 3.0341856479644775, -10.737629890441895, 1.0868890285491943, 
375, 675144765, -77.96646118164062, -85.74734497070312, -164.63723754882812, 9.841522216796875, -0.3925335109233856, -0.4345707595348358, 2.924659252166748, -11.67951488494873, 1.0881696939468384, 
376, 675153098, -79.06689453125, -85.77812957763672, -163.5079803466797, 9.87002944946289, -0.3971557021141052, -0.43363115191459656, 2.958700656890869, -12.689101219177246, 1.143957495689392, 
377, 675161431, -80.4831771850586, -85.79337310791016, -162.0629425048828, 9.859579086303711, -0.37857645750045776, -0.43633729219436646, 2.9727118015289307, -13.506759643554688, 1.069804310798645, 
378, 675169764, -81.8255844116211, -85.82293701171875, -160.69305419921875, 9.849474906921387, -0.39339178800582886, -0.4079732596874237, 2.8475353717803955, -14.489324569702148, 1.0686005353927612, 
379, 675178097, -83.46913146972656, -85.83519744873047, -159.02122497558594, 9.849259376525879, -0.3864385187625885, -0.4119207561016083, 2.8844199180603027, -15.30672550201416, 1.0042064189910889, 
380, 675186430, -85.06138610839844, -85.86209106445312, -157.40028381347656, 9.892339706420898, -0.38960039615631104, -0.4344020485877991, 2.8353171348571777, -16.314695358276367, 0.9864299893379211, 
381, 675194763, -86.9438705444336, -85.86900329589844, -155.48867797851562, 9.87440299987793, -0.4041759967803955, -0.4235508143901825, 2.8567311763763428, -17.203357696533203, 0.964555561542511, 
382, 675203096, -88.76300048828125, -85.88848876953125, -153.6416778564453, 9.87631607055664, -0.3811848759651184, -0.44559445977211, 2.8025307655334473, -17.92037582397461, 1.0066653490066528, 
383, 675211429, -90.83004760742188, -85.88591766357422, -151.5456085205078, 9.88045597076416, -0.384674072265625, -0.4280439615249634, 2.802711009979248, -18.69049644470215, 1.0099953413009644, 
384, 675219762, -92.86167907714844, -85.89630126953125, -149.4860076904297, 9.895798683166504, -0.38879138231277466, -0.39012426137924194, 2.7193100452423096, -19.50479507446289, 0.9665533304214478, 
385, 675228095, -95.098388671875, -85.8823013305664, -147.2199249267578, 9.919025421142578, -0.4020298719406128, -0.4109664261341095, 2.801250457763672, -20.218717575073242, 0.9649909138679504, 
386, 675236428, -97.30467987060547, -85.88001251220703, -144.9861297607422, 9.906148910522461, -0.39807090163230896, -0.40487420558929443, 2.7575523853302, -20.964040756225586, 0.9504420757293701, 
387, 675244761, -99.66752624511719, -85.85140991210938, -142.5938262939453, 9.927236557006836, -0.3928013741970062, -0.4093586206436157, 2.7659800052642822, -21.635547637939453, 0.9872242212295532, 
388, 675253094, -102.00093841552734, -85.83448791503906, -140.23048400878906, 9.919081687927246, -0.39744749665260315, -0.3996526300907135, 2.6596808433532715, -22.297595977783203, 0.9223945140838623, 
389, 675261427, -104.4422378540039, -85.79019927978516, -137.76022338867188, 9.926173210144043, -0.397865355014801, -0.39264851808547974, 2.6689019203186035, -22.947559356689453, 0.8703208565711975, 
390, 675269760, -106.83740234375, -85.75743865966797, -135.3393096923828, 9.943669319152832, -0.391855925321579, -0.3684268295764923, 2.586475372314453, -23.395448684692383, 0.8135084509849548, 
391, 675278093, -109.2642822265625, -85.69598388671875, -132.8838653564453, 9.963846206665039, -0.3932056427001953, -0.3940122425556183, 2.6123709678649902, -23.824562072753906, 0.8571550250053406, 
392, 675286426, -111.66265106201172, -85.6456298828125, -130.45071411132812, 9.949993133544922, -0.380642294883728, -0.38909053802490234, 2.6542506217956543, -24.374940872192383, 0.7725512981414795, 
393, 675294759, -114.05415344238281, -85.56553649902344, -128.0294952392578, 9.945850372314453, -0.39972737431526184, -0.430695503950119, 2.7041218280792236, -24.91294288635254, 0.8584359288215637, 
394, 675303092, -116.39265441894531, -85.49663543701172, -125.6688003540039, 9.960122108459473, -0.38781610131263733, -0.3996468186378479, 2.728020191192627, -25.17848777770996, 0.8359979391098022, 
395, 675311425, -118.67904663085938, -85.3990478515625, -123.35301208496094, 9.962593078613281, -0.38129520416259766, -0.39289143681526184, 2.654123067855835, -25.64215850830078, 0.8449885249137878, 
396, 675319758, -120.92401885986328, -85.31224060058594, -121.06490325927734, 9.959875106811523, -0.4081566035747528, -0.39734405279159546, 2.550743579864502, -25.956083297729492, 0.8594604134559631, 
397, 675328091, -123.06961822509766, -85.19849395751953, -118.89027404785156, 9.983702659606934, -0.3881661891937256, -0.3917393386363983, 2.559094190597534, -26.21678924560547, 0.8150454759597778, 
398, 675336424, -125.16924285888672, -85.09567260742188, -116.76510620117188, 9.977081298828125, -0.4005553126335144, -0.41102856397628784, 2.618135452270508, -26.39191436767578, 0.875392735004425, 
399, 675344757, -127.15057373046875, -84.96662902832031, -114.7545166015625, 9.988011360168457, -0.3855096995830536, -0.4076053500175476, 2.5953896045684814, -26.689393997192383, 0.8506492376327515, 
400, 675353090, -129.10107421875, -84.84972381591797, -112.78559112548828, 9.969104766845703, -0.39156079292297363, -0.3598178029060364, 2.5789966583251953, -26.842647552490234, 0.8387643098831177, 
401, 675361423, -130.90695190429688, -84.70809936523438, -110.95064544677734, 9.997210502624512, -0.38194990158081055, -0.3799774646759033, 2.5924439430236816, -26.94805145263672, 0.8045436143875122, 
402, 675369756, -132.68565368652344, -84.5802230834961, -109.1449966430664, 9.997140884399414, -0.3788810670375824, -0.38631680607795715, 2.524899482727051, -26.91413688659668, 0.7531614899635315, 
403, 675378089, -134.30776977539062, -84.42887878417969, -107.49315643310547, 10.020570755004883, -0.4079684615135193, -0.376904159784317, 2.6518948078155518, -26.95824432373047, 0.7976534366607666, 
404, 675386422, -135.91969299316406, -84.29003143310547, -105.85076904296875, 10.009841918945312, -0.40767788887023926, -0.4108048379421234, 2.646618127822876, -27.07379150390625, 0.8434516787528992, 
405, 675394755, -137.37591552734375, -84.13037872314453, -104.36495208740234, 10.010663032531738, -0.4192691445350647, -0.37711101770401, 2.620670795440674, -26.968029022216797, 0.7690680027008057, 
406, 675403088, -138.8258819580078, -83.98477935791016, -102.88695526123047, 10.008796691894531, -0.3957275450229645, -0.41362181305885315, 2.6721298694610596, -26.911523818969727, 0.791608452796936, 
407, 675411421, -140.1200408935547, -83.81981658935547, -101.5633544921875, 9.989354133605957, -0.3889809846878052, -0.3698613941669464, 2.6312239170074463, -26.69833755493164, 0.7348728775978088, 
408, 675419754, -141.41464233398438, -83.67051696777344, -100.23977661132812, 9.998445510864258, -0.3977983593940735, -0.3865148425102234, 2.608426809310913, -26.486656188964844, 0.737485408782959, 
409, 675428087, -142.55575561523438, -83.5029067993164, -99.0700912475586, 10.008014678955078, -0.40492013096809387, -0.36585530638694763, 2.550231456756592, -26.190738677978516, 0.7320552468299866, 
410, 675436420, -143.69956970214844, -83.35140991210938, -97.89884948730469, 10.015913009643555, -0.40757718682289124, -0.3792649507522583, 2.5271527767181396, -25.90749168395996, 0.8446041345596313, 
411, 675444753, -144.69248962402344, -83.18220520019531, -96.87696075439453, 9.99582290649414, -0.4025018513202667, -0.342636376619339, 2.647207021713257, -25.567007064819336, 0.915299654006958, 
412, 675453086, -145.7041473388672, -83.03015899658203, -95.83696746826172, 10.004791259765625, -0.3938745856285095, -0.35386618971824646, 2.6542253494262695, -25.282712936401367, 0.9151458740234375, 
413, 675461419, -146.58120727539062, -82.86293029785156, -94.93152618408203, 9.994087219238281, -0.37595894932746887, -0.3711128830909729, 2.5751793384552, -24.801313400268555, 0.8143024444580078, 
414, 675469752, -147.4801025390625, -82.7140121459961, -94.00518035888672, 9.998931884765625, -0.3812762498855591, -0.368912935256958, 2.5973870754241943, -24.387542724609375, 0.8124070167541504, 
415, 675478085, -148.25083923339844, -82.54965209960938, -93.20624542236328, 9.990646362304688, -0.3849346339702606, -0.3246176242828369, 2.578829526901245, -23.94862937927246, 0.8019436001777649, 
416, 675486418, -149.03724670410156, -82.40475463867188, -92.39208221435547, 9.999326705932617, -0.3995579183101654, -0.3659815490245819, 2.705658435821533, -23.354158401489258, 0.9099204540252686, 
417, 675494751, -149.7086944580078, -82.24561309814453, -91.69194793701172, 9.976112365722656, -0.38793280720710754, -0.36914682388305664, 2.6730000972747803, -22.860471725463867, 0.8000353574752808, 
418, 675503084, -150.40072631835938, -82.10768127441406, -90.9716796875, 9.98564338684082, -0.39488792419433594, -0.3524184823036194, 2.7877261638641357, -22.13548469543457, 0.8565147519111633, 
419, 675511417, -150.97616577148438, -81.95446014404297, -90.36795806884766, 9.986054420471191, -0.3934822082519531, -0.35120275616645813, 2.6816065311431885, -21.66620635986328, 0.9748525023460388, 
420, 675519750, -151.58168029785156, -81.82331848144531, -89.73573303222656, 9.9760103225708, -0.4051513969898224, -0.36062943935394287, 2.6792244911193848, -20.917423248291016, 0.952004611492157, 
421, 675528083, -152.07644653320312, -81.6796875, -89.21306610107422, 9.963852882385254, -0.3794890344142914, -0.3520975112915039, 2.6902894973754883, -20.162851333618164, 0.9411696791648865, 
422, 675536416, -152.60653686523438, -81.55882263183594, -88.65658569335938, 9.977800369262695, -0.38529539108276367, -0.33380186557769775, 2.6648802757263184, -19.42388343811035, 0.8947312235832214, 
423, 675544749, -153.03170776367188, -81.4249496459961, -88.20335388183594, 9.985180854797363, -0.39755284786224365, -0.32970312237739563, 2.756669282913208, -18.6893310546875, 0.9208706617355347, 
424, 675553082, -153.49212646484375, -81.314208984375, -87.71634674072266, 9.965605735778809, -0.37691590189933777, -0.3538476228713989, 2.768592119216919, -17.9434814453125, 0.919961154460907, 
425, 675561415, -153.8509521484375, -81.19123840332031, -87.32965850830078, 9.967397689819336, -0.3820636570453644, -0.35965633392333984, 2.79026198387146, -17.084148406982422, 0.9663740992546082, 
426, 675569748, -154.24095153808594, -81.09329223632812, -86.91280364990234, 9.963882446289062, -0.40048253536224365, -0.34819719195365906, 2.8246359825134277, -16.163650512695312, 1.0008509159088135, 
427, 675578081, -154.54232788085938, -80.98208618164062, -86.58409881591797, 9.965719223022461, -0.40142586827278137, -0.35819321870803833, 2.803529739379883, -15.416044235229492, 0.9721372127532959, 
428, 675586414, -154.87486267089844, -80.8967514038086, -86.2249526977539, 9.942866325378418, -0.3956037163734436, -0.35877710580825806, 2.876811981201172, -14.458122253417969, 1.0106608867645264, 
429, 675594747, -155.1204833984375, -80.79837036132812, -85.95169067382812, 9.93419361114502, -0.39985719323158264, -0.33085885643959045, 2.870203971862793, -13.64871597290039, 1.0241342782974243, 
430, 675603080, -155.40130615234375, -80.72663879394531, -85.64503479003906, 9.962176322937012, -0.378343790769577, -0.33054059743881226, 2.8639538288116455, -12.661798477172852, 0.9976746439933777, 
431, 675611413, -155.59596252441406, -80.64226531982422, -85.42244720458984, 9.942825317382812, -0.4093155562877655, -0.3496973216533661, 2.9878108501434326, -11.750401496887207, 1.0280400514602661, 
432, 675619746, -155.8233184814453, -80.58589172363281, -85.16917419433594, 9.95988655090332, -0.3893439769744873, -0.32121700048446655, 2.907318592071533, -10.678972244262695, 1.0300252437591553, 
433, 675628079, -155.9670867919922, -80.51651763916016, -84.99903106689453, 9.941970825195312, -0.40315237641334534, -0.3353063762187958, 2.8825747966766357, -9.712111473083496, 1.1045626401901245, 
434, 675636412, -156.14039611816406, -80.47540283203125, -84.80101776123047, 9.924250602722168, -0.3908861577510834, -0.3217534124851227, 2.856806993484497, -8.65821361541748, 1.1732089519500732, 
435, 675644745, -156.23399353027344, -80.42188262939453, -84.68115234375, 9.929814338684082, -0.3865634799003601, -0.35580456256866455, 2.9475834369659424, -7.589663505554199, 1.1773581504821777, 
436, 675653078, -156.3626708984375, -80.3963851928711, -84.52711486816406, 9.919960975646973, -0.38333413004875183, -0.3267863392829895, 2.978013277053833, -6.695291519165039, 1.1705448627471924, 
437, 675661411, -156.4158935546875, -80.35843658447266, -84.4477310180664, 9.94436264038086, -0.3957575559616089, -0.361623615026474, 2.989539623260498, -5.5747456550598145, 1.142394781112671, 
438, 675669744, -156.4962615966797, -80.35001373291016, -84.3431167602539, 9.936476707458496, -0.4024638235569, -0.3669288754463196, 2.9565999507904053, -4.492954254150391, 1.2190070152282715, 
439, 675678077, -156.50559997558594, -80.32811737060547, -84.3074722290039, 9.929659843444824, -0.40382009744644165, -0.3627973198890686, 3.076704978942871, -3.4650042057037354, 1.1720305681228638, 
440, 675686410, -156.5411376953125, -80.33606719970703, -84.24674987792969, 9.931303977966309, -0.38246116042137146, -0.319333553314209, 3.1114892959594727, -2.4333393573760986, 1.24544095993042, 
441, 675694743, -156.50135803222656, -80.33157348632812, -84.26100158691406, 9.923177719116211, -0.38285353779792786, -0.30806368589401245, 3.092073678970337, -1.1454046964645386, 1.2593495845794678, 
442, 675703076, -156.4929962158203, -80.35684204101562, -84.24464416503906, 9.948304176330566, -0.38492143154144287, -0.33776190876960754, 3.1098246574401855, -0.2651969790458679, 1.2367064952850342, 
443, 675711409, -156.40907287597656, -80.3676528930664, -84.30238342285156, 9.929805755615234, -0.4043734073638916, -0.34488528966903687, 3.235154867172241, 0.880028247833252, 1.3312997817993164, 
444, 675719742, -156.3583221435547, -80.40933990478516, -84.32765197753906, 9.906682968139648, -0.4055836796760559, -0.3780934512615204, 3.2872023582458496, 1.8000656366348267, 1.1952368021011353, 
445, 675728075, -156.2331085205078, -80.4357681274414, -84.42692565917969, 9.917381286621094, -0.40229684114456177, -0.3390120565891266, 3.26704478263855, 2.916616201400757, 1.3351932764053345, 
446, 675736408, -156.1328887939453, -80.4935531616211, -84.50228118896484, 9.940950393676758, -0.4095728397369385, -0.3351544141769409, 3.265994071960449, 3.877636671066284, 1.3056600093841553, 
447, 675744741, -155.9658660888672, -80.5348129272461, -84.6442642211914, 9.927491188049316, -0.3951852321624756, -0.3517966866493225, 3.2267916202545166, 4.869816780090332, 1.3569011688232422, 
448, 675753074, -155.8137664794922, -80.6095962524414, -84.77245330810547, 9.940940856933594, -0.398310124874115, -0.36135149002075195, 3.2289559841156006, 6.075747489929199, 1.3651362657546997, 
449, 675761407, -155.5979461669922, -80.66584014892578, -84.96277618408203, 9.925930976867676, -0.3822048008441925, -0.37498238682746887, 3.35418438911438, 6.880727291107178, 1.4123178720474243, 
450, 675769740, -155.39138793945312, -80.75605010986328, -85.14534759521484, 9.938101768493652, -0.3815215528011322, -0.35640811920166016, 3.3061063289642334, 8.103422164916992, 1.455093502998352, 
451, 675778073, -155.123291015625, -80.82769775390625, -85.38794708251953, 9.938472747802734, -0.40370240807533264, -0.3489059507846832, 3.4304888248443604, 8.954095840454102, 1.4361900091171265, 
452, 675786406, -154.86790466308594, -80.93230438232422, -85.61914825439453, 9.965019226074219, -0.38586971163749695, -0.37382209300994873, 3.3726015090942383, 9.943243980407715, 1.4082452058792114, 
453, 675794739, -154.548583984375, -81.0177993774414, -85.91373443603516, 9.94186019897461, -0.4001257121562958, -0.3426963984966278, 3.395371675491333, 10.830927848815918, 1.443848729133606, 
454, 675803072, -154.23941040039062, -81.13605499267578, -86.19751739501953, 9.959771156311035, -0.39024585485458374, -0.3772536516189575, 3.563939332962036, 11.72850227355957, 1.3551980257034302, 
455, 675811405, -153.86695861816406, -81.23397827148438, -86.54537200927734, 9.961467742919922, -0.39111003279685974, -0.3449416160583496, 3.451134443283081, 12.554460525512695, 1.4207706451416016, 
456, 675819738, -153.48928833007812, -81.36550903320312, -86.89987182617188, 9.959529876708984, -0.40257638692855835, -0.3254121243953705, 3.373831272125244, 13.597269058227539, 1.4875984191894531, 
457, 675828071, -153.04884338378906, -81.47624206542969, -87.31522369384766, 9.969213485717773, -0.37732061743736267, -0.36437296867370605, 3.556614398956299, 14.389236450195312, 1.4826035499572754, 
458, 675836404, -152.6008758544922, -81.61908721923828, -87.73963165283203, 9.970699310302734, -0.4301804304122925, -0.3578832149505615, 3.4591779708862305, 15.197032928466797, 1.5538368225097656, 
459, 675844737, -152.08807373046875, -81.74093627929688, -88.22882080078125, 9.967903137207031, -0.382182776927948, -0.36286914348602295, 3.445871353149414, 16.062576293945312, 1.5594593286514282, 
460, 675853070, -151.5652618408203, -81.89460754394531, -88.72770690917969, 9.96497917175293, -0.4011356234550476, -0.3801272213459015, 3.5250449180603027, 16.756080627441406, 1.531052827835083, 
461, 675861403, -150.9795379638672, -82.0263900756836, -89.28958129882812, 9.97870922088623, -0.40096163749694824, -0.39036691188812256, 3.5290284156799316, 17.56945037841797, 1.488776683807373, 
462, 675869736, -150.37351989746094, -82.18902587890625, -89.87189483642578, 9.992085456848145, -0.4023073613643646, -0.37282904982566833, 3.571316957473755, 18.168128967285156, 1.518233060836792, 
463, 675878069, -149.70245361328125, -82.32782745361328, -90.51936340332031, 9.993435859680176, -0.3758833110332489, -0.3427942097187042, 3.525646686553955, 18.80989646911621, 1.5819612741470337, 
464, 675886402, -148.9980010986328, -82.49745178222656, -91.20089721679688, 10.003762245178223, -0.3765377998352051, -0.3870803117752075, 3.4969844818115234, 19.42597007751465, 1.6280925273895264, 
465, 675894735, -148.230224609375, -82.64228057861328, -91.94474792480469, 9.983551025390625, -0.4032689332962036, -0.37973731756210327, 3.6195993423461914, 19.99947166442871, 1.6350082159042358, 
466, 675903068, -147.41836547851562, -82.81880950927734, -92.73371124267578, 10.004441261291504, -0.3904925286769867, -0.38460564613342285, 3.5336642265319824, 20.694438934326172, 1.5696920156478882, 
467, 675911401, -146.54385375976562, -82.96893310546875, -93.5846939086914, 10.000944137573242, -0.40005046129226685, -0.3616176247596741, 3.6084330081939697, 21.12852668762207, 1.615004062652588, 
468, 675919734, -145.61505126953125, -83.14868927001953, -94.48978424072266, 9.987667083740234, -0.40913987159729004, -0.4052221477031708, 3.625978469848633, 21.587430953979492, 1.5681811571121216, 
469, 675928067, -144.61692810058594, -83.30168151855469, -95.46491241455078, 10.016057968139648, -0.3900972902774811, -0.3775736391544342, 3.5610718727111816, 22.085603713989258, 1.668947458267212, 
470, 675936400, -143.54669189453125, -83.48265838623047, -96.51226806640625, 9.99802303314209, -0.40899109840393066, -0.38919615745544434, 3.5795650482177734, 22.42998504638672, 1.6761192083358765, 
471, 675944733, -142.41119384765625, -83.6356430053711, -97.62348175048828, 9.977742195129395, -0.39954328536987305, -0.3673025667667389, 3.7184720039367676, 22.774396896362305, 1.752065896987915, 
472, 675953066, -141.18740844726562, -83.81623077392578, -98.8240737915039, 9.995211601257324, -0.40643754601478577, -0.4048227071762085, 3.6502861976623535, 23.12610626220703, 1.6624926328659058, 
473, 675961399, -139.90187072753906, -83.96775817871094, -100.08642578125, 9.99938678741455, -0.38739386200904846, -0.3983961045742035, 3.6249794960021973, 23.39815330505371, 1.744535207748413, 
474, 675969732, -138.51109313964844, -84.14508819580078, -101.45491027832031, 10.004871368408203, -0.397602915763855, -0.4038628339767456, 3.665783166885376, 23.5510196685791, 1.668947696685791, 
475, 675978065, -137.06436157226562, -84.29340362548828, -102.87850952148438, 10.014012336730957, -0.3907562494277954, -0.3827403783798218, 3.6670889854431152, 23.864408493041992, 1.6269912719726562, 
476, 675986398, -135.476806640625, -84.46621704101562, -104.44136810302734, 10.002765655517578, -0.3830648958683014, -0.3891845941543579, 3.700438976287842, 24.04045867919922, 1.6514018774032593, 
477, 675994731, -133.85427856445312, -84.6067886352539, -106.04020690917969, 10.008878707885742, -0.3901667296886444, -0.3962554931640625, 3.6905007362365723, 23.94493865966797, 1.7118512392044067, 
478, 676003064, -132.0715789794922, -84.77104187011719, -107.80561828613281, 10.004829406738281, -0.3880144953727722, -0.42408323287963867, 3.6414244174957275, 24.10421371459961, 1.601710319519043, 
479, 676011397, -130.26104736328125, -84.90330505371094, -109.59302520751953, 10.000028610229492, -0.3991326689720154, -0.4280543625354767, 3.643601655960083, 24.074602127075195, 1.619998812675476, 
480, 676019730, -128.2633819580078, -85.05569458007812, -111.57131958007812, 9.994606971740723, -0.37132176756858826, -0.3942236006259918, 3.748286724090576, 24.004676818847656, 1.6673082113265991, 
481, 676028063, -126.25562286376953, -85.17696380615234, -113.55589294433594, 9.993246078491211, -0.3849414885044098, -0.3753441274166107, 3.6636571884155273, 24.041200637817383, 1.5526844263076782, 
482, 676036396, -124.02989959716797, -85.31609344482422, -115.74479675292969, 9.98711109161377, -0.3936186134815216, -0.38564324378967285, 3.679307222366333, 23.93886947631836, 1.6453824043273926, 
483, 676044729, -121.81697082519531, -85.42230224609375, -117.93414306640625, 9.980558395385742, -0.3855767846107483, -0.3889066278934479, 3.688835859298706, 23.814485549926758, 1.700939655303955, 
484, 676053062, -119.37532806396484, -85.54622650146484, -120.36880493164062, 9.981290817260742, -0.3856205642223358, -0.41697537899017334, 3.7384250164031982, 23.681474685668945, 1.5364195108413696, 
485, 676061395, -116.99632263183594, -85.63641357421875, -122.72476196289062, 9.980329513549805, -0.37431079149246216, -0.39713072776794434, 3.5849192142486572, 23.337934494018555, 1.6079856157302856, 
486, 676069728, -114.37773132324219, -85.73988342285156, -125.33660888671875, 9.966023445129395, -0.37884458899497986, -0.4098311960697174, 3.6220595836639404, 22.980005264282227, 1.6658227443695068, 
487, 676078061, -111.85706329345703, -85.81175231933594, -127.8330307006836, 9.964210510253906, -0.38979122042655945, -0.4216039776802063, 3.6812281608581543, 22.741558074951172, 1.6359306573867798, 
488, 676086394, -109.08831024169922, -85.8949203491211, -130.58168029785156, 9.966662406921387, -0.38631799817085266, -0.4107898473739624, 3.5970089435577393, 22.3666934967041, 1.6451263427734375, 
489, 676094727, -106.48475646972656, -85.94720458984375, -133.16183471679688, 9.965259552001953, -0.36889544129371643, -0.4153040945529938, 3.587146759033203, 21.953046798706055, 1.6314992904663086, 
490, 676103060, -103.63580322265625, -86.01022338867188, -135.98452758789062, 9.943842887878418, -0.39443808794021606, -0.4180777668952942, 3.6146304607391357, 21.518144607543945, 1.5762748718261719, 
491, 676111393, -101.00855255126953, -86.04324340820312, -138.58831787109375, 9.931100845336914, -0.39055976271629333, -0.43792879581451416, 3.569678544998169, 21.0544490814209, 1.6307311058044434, 
492, 676119726, -98.146728515625, -86.08453369140625, -141.4223175048828, 9.948352813720703, -0.38491061329841614, -0.42226549983024597, 3.623955011367798, 20.531484603881836, 1.6953303813934326, 
493, 676128059, -95.56170654296875, -86.09991455078125, -143.98291015625, 9.907369613647461, -0.3984013795852661, -0.4158942997455597, 3.585815191268921, 20.06222915649414, 1.590234637260437, 
494, 676136392, -92.7751235961914, -86.12213134765625, -146.74612426757812, 9.893389701843262, -0.39312753081321716, -0.4404522776603699, 3.501415729522705, 19.342416763305664, 1.671918511390686, 
495, 676144725, -90.3211441040039, -86.12142181396484, -149.17555236816406, 9.890778541564941, -0.3949070870876312, -0.4112738370895386, 3.62121319770813, 18.757436752319336, 1.4992784261703491, 
496, 676153058, -87.68077850341797, -86.12799072265625, -151.7913360595703, 9.902547836303711, -0.4060480296611786, -0.4254462718963623, 3.45548939704895, 17.99690055847168, 1.5408504009246826, 
497, 676161391, -85.4043197631836, -86.11309814453125, -154.04342651367188, 9.882768630981445, -0.40781381726264954, -0.4215296804904938, 3.5149147510528564, 17.403135299682617, 1.5830371379852295, 
498, 676169724, -82.95521545410156, -86.10645294189453, -156.46717834472656, 9.896566390991211, -0.39383193850517273, -0.4342324733734131, 3.5791289806365967, 16.57927894592285, 1.468976616859436, 
499, 676178057, -80.89696502685547, -86.0816879272461, -158.5015106201172, 9.884777069091797, -0.41564157605171204, -0.41030311584472656, 3.4131743907928467, 15.922221183776855, 1.519513487815857, 
500, 676186390, -78.6729965209961, -86.06468200683594, -160.7003936767578, 9.88998031616211, -0.39778053760528564, -0.42817816138267517, 3.499033212661743, 15.087759971618652, 1.4803494215011597, 
501, 676194723, -76.86295318603516, -86.03335571289062, -162.48556518554688, 9.880681037902832, -0.3899153172969818, -0.40784990787506104, 3.448265552520752, 14.260649681091309, 1.4795551300048828, 
502, 676203056, -74.90133666992188, -86.00904083251953, -164.42239379882812, 9.861957550048828, -0.3941521942615509, -0.4281086325645447, 3.4412989616394043, 13.368124961853027, 1.558908462524414, 
503, 676211389, -73.35202026367188, -85.97367858886719, -165.9467010498047, 9.849372863769531, -0.39084333181381226, -0.42274701595306396, 3.413738250732422, 12.49682903289795, 1.5161837339401245, 
504, 676219722, -71.63890075683594, -85.94642639160156, -167.6346435546875, 9.86325454711914, -0.40172362327575684, -0.4192902147769928, 3.4098949432373047, 11.688901901245117, 1.488289475440979, 
505, 676228055, -70.33586883544922, -85.91102600097656, -168.91232299804688, 9.83671760559082, -0.39232319593429565, -0.44513145089149475, 3.396268129348755, 10.709158897399902, 1.4028916358947754, 
506, 676236388, -68.89010620117188, -85.88363647460938, -170.33267211914062, 9.834071159362793, -0.39360982179641724, -0.41202512383461, 3.3828210830688477, 9.746293067932129, 1.47430419921875, 
507, 676244721, -67.83482360839844, -85.8488998413086, -171.3626708984375, 9.842719078063965, -0.3874538242816925, -0.4228098690509796, 3.349855661392212, 8.841011047363281, 1.5085762739181519, 
508, 676253054, -66.62323760986328, -85.82411193847656, -172.5472412109375, 9.836666107177734, -0.3972804844379425, -0.452358216047287, 3.4512619972229004, 7.945049285888672, 1.4390846490859985, 
509, 676261387, -65.7951889038086, -85.79425048828125, -173.3505401611328, 9.822796821594238, -0.3766464293003082, -0.4234205484390259, 3.200345039367676, 6.91520357131958, 1.3700029850006104, 
510, 676269720, -64.8257064819336, -85.77436828613281, -174.29403686523438, 9.825321197509766, -0.3956323266029358, -0.43663331866264343, 3.2638938426971436, 5.927723407745361, 1.393183946609497, 
511, 676278053, -64.23124694824219, -85.75019836425781, -174.86279296875, 9.826902389526367, -0.4030659794807434, -0.4500080943107605, 3.2798261642456055, 4.802387714385986, 1.3519963026046753, 
512, 676286386, -63.50148010253906, -85.7370376586914, -175.56561279296875, 9.833094596862793, -0.3821597397327423, -0.44686245918273926, 3.331899642944336, 3.76047682762146, 1.3320425748825073, 
513, 676294719, -63.099754333496094, -85.72035217285156, -175.94154357910156, 9.819964408874512, -0.3890984058380127, -0.420624315738678, 3.2064671516418457, 2.915950059890747, 1.2191864252090454, 
514, 676303052, -62.58778381347656, -85.7137680053711, -176.42742919921875, 9.82494831085205, -0.38396212458610535, -0.4243391752243042, 3.1699154376983643, 1.7669466733932495, 1.388009786605835, 
515, 676311385, -62.41368865966797, -85.70454406738281, -176.5757293701172, 9.818174362182617, -0.4065278470516205, -0.3857489824295044, 3.1350033283233643, 0.6977574825286865, 1.3010239601135254, 
516, 676319718, -62.10828399658203, -85.70677947998047, -176.85440063476562, 9.817039489746094, -0.3920258581638336, -0.4423651099205017, 3.164510488510132, -0.28950488567352295, 1.2745643854141235, 
517, 676328051, -62.13188934326172, -85.70654296875, -176.80416870117188, 9.813865661621094, -0.3888149559497833, -0.42388761043548584, 3.195119857788086, -1.3904048204421997, 1.1579684019088745, 
518, 676336384, -62.04371643066406, -85.71897888183594, -176.86521911621094, 9.809165000915527, -0.3889564573764801, -0.436782568693161, 3.1414577960968018, -2.507390260696411, 1.106611728668213, 
519, 676344717, -62.2758903503418, -85.72694396972656, -176.60675048828125, 9.831863403320312, -0.39770761132240295, -0.43581661581993103, 3.0716848373413086, -3.4961507320404053, 1.165063500404358, 
520, 676353050, -62.39009094238281, -85.74665069580078, -176.46559143066406, 9.81776237487793, -0.38097214698791504, -0.43340805172920227, 3.0898194313049316, -4.433401107788086, 1.1512573957443237, 
521, 676361383, -62.82938766479492, -85.76288604736328, -175.99957275390625, 9.80632495880127, -0.37398818135261536, -0.4092751741409302, 3.0390777587890625, -5.566524028778076, 1.132686972618103, 
522, 676369716, -63.17283630371094, -85.79104614257812, -175.62989807128906, 9.813880920410156, -0.37964320182800293, -0.4068344235420227, 2.9305758476257324, -6.585638046264648, 1.129844069480896, 
523, 676378049, -63.826839447021484, -85.81399536132812, -174.9495391845703, 9.835722923278809, -0.38564977049827576, -0.42410534620285034, 2.924889326095581, -7.5737833976745605, 1.16360342502594, 
524, 676386382, -64.40420532226562, -85.84993743896484, -174.34498596191406, 9.830056190490723, -0.37808656692504883, -0.43056443333625793, 2.993356943130493, -8.690975189208984, 1.0787692070007324, 
525, 676394715, -65.2800521850586, -85.87925720214844, -173.4420623779297, 9.827452659606934, -0.40505415201187134, -0.4467006027698517, 2.9459187984466553, -9.57187271118164, 1.0935230255126953, 
526, 676403048, -66.09552001953125, -85.92066955566406, -172.59951782226562, 9.822636604309082, -0.3833765387535095, -0.42940065264701843, 2.9170258045196533, -10.61293888092041, 1.1173954010009766, 
527, 676411381, -67.20747375488281, -85.95417022705078, -171.46043395996094, 9.853230476379395, -0.3964412212371826, -0.38543882966041565, 2.914029359817505, -11.497014045715332, 1.0965454578399658, 
528, 676419714, -68.26615905761719, -85.9993896484375, -170.37445068359375, 9.848615646362305, -0.38935545086860657, -0.4143396317958832, 2.8997626304626465, -12.43652057647705, 1.0908081531524658, 
529, 676428047, -69.63688659667969, -86.03572845458984, -168.97555541992188, 9.855284690856934, -0.40023621916770935, -0.4206230044364929, 2.9531171321868896, -13.453431129455566, 1.087247610092163, 
530, 676436380, -70.96600341796875, -86.083740234375, -167.6190948486328, 9.867366790771484, -0.4017290472984314, -0.44165849685668945, 2.8278374671936035, -14.317397117614746, 1.0065370798110962, 
531, 676444713, -72.59321594238281, -86.1213150024414, -165.964111328125, 9.847579956054688, -0.3788659870624542, -0.426329642534256, 2.849097490310669, -15.24109935760498, 0.9148638248443604, 
532, 676453046, -74.20101928710938, -86.16845703125, -164.328857421875, 9.862751007080078, -0.39113619923591614, -0.4014807343482971, 2.843616008758545, -16.045438766479492, 0.9865068793296814, 
533, 676461379, -76.10930633544922, -86.2020263671875, -162.39276123046875, 9.883197784423828, -0.3807913064956665, -0.39893755316734314, 2.8160037994384766, -16.989221572875977, 1.0323307514190674, 
534, 676469712, -78.01175689697266, -86.24578857421875, -160.46315002441406, 9.882022857666016, -0.38773977756500244, -0.4298015534877777, 2.7406985759735107, -17.760852813720703, 0.9547452926635742, 
535, 676478045, -80.18206787109375, -86.27364349365234, -158.26608276367188, 9.884540557861328, -0.39522242546081543, -0.4029877781867981, 2.6572468280792236, -18.542648315429688, 0.9249558448791504, 
536, 676486378, -82.36902618408203, -86.30960083007812, -156.0507049560547, 9.896505355834961, -0.3916953504085541, -0.42728352546691895, 2.7925162315368652, -19.31643295288086, 0.9889915585517883, 
537, 676494711, -84.78890991210938, -86.32704162597656, -153.6034393310547, 9.909918785095215, -0.39472994208335876, -0.38822391629219055, 2.7044286727905273, -19.995080947875977, 0.9750317931175232, 
538, 676503044, -87.22454833984375, -86.3525619506836, -151.13998413085938, 9.908894538879395, -0.4019607901573181, -0.3951061964035034, 2.7601401805877686, -20.658723831176758, 0.9376607537269592, 
539, 676511377, -89.86550903320312, -86.35745239257812, -148.4711456298828, 9.928360939025879, -0.38735252618789673, -0.40632331371307373, 2.7188494205474854, -21.390981674194336, 0.8842036724090576, 
540, 676519710, -92.5247573852539, -86.3692398071289, -145.78570556640625, 9.91818904876709, -0.4023592472076416, -0.39049315452575684, 2.724126100540161, -21.997295379638672, 0.7977043986320496, 
541, 676528043, -95.32769775390625, -86.35707092285156, -142.95494079589844, 9.926074028015137, -0.39783111214637756, -0.4106775224208832, 2.642442226409912, -22.618492126464844, 0.9518765211105347, 
542, 676536376, -98.13911437988281, -86.3509521484375, -140.11599731445312, 9.941596984863281, -0.3982571065425873, -0.4037967622280121, 2.615931987762451, -23.142127990722656, 0.8416072726249695, 
543, 676544709, -101.02025604248047, -86.320068359375, -137.20654296875, 9.94351863861084, -0.39400726556777954, -0.4144372045993805, 2.7044289112091064, -23.642271041870117, 0.9053356051445007, 
544, 676553042, -103.8922348022461, -86.29292297363281, -134.29942321777344, 9.946308135986328, -0.39510512351989746, -0.4091538190841675, 2.7088091373443604, -24.10565757751465, 0.9800779223442078, 
545, 676561375, -106.77814483642578, -86.24240112304688, -131.38485717773438, 9.957274436950684, -0.38100266456604004, -0.3800828456878662, 2.681760787963867, -24.588491439819336, 0.8156858682632446, 
546, 676569708, -109.63742065429688, -86.195068359375, -128.48367309570312, 9.947324752807617, -0.38847315311431885, -0.39145609736442566, 2.6174943447113037, -24.9512882232666, 0.8509053587913513, 
547, 676578041, -112.4331283569336, -86.12379455566406, -125.65917205810547, 9.963441848754883, -0.3910832405090332, -0.39708444476127625, 2.6776113510131836, -25.286428451538086, 0.8255216479301453, 
548, 676586374, -115.1888198852539, -86.05642700195312, -122.89439392089844, 9.960515975952148, -0.3993277847766876, -0.38830626010894775, 2.6695940494537354, -25.559497833251953, 0.8084368705749512, 
549, 676594707, -117.82382202148438, -85.96599578857422, -120.23109436035156, 9.9672269821167, -0.4063347280025482, -0.3936425447463989, 2.576793670654297, -25.77040672302246, 0.7949126362800598, 
550, 676603040, -120.41841125488281, -85.87821197509766, -117.58518981933594, 9.97860050201416, -0.3840659260749817, -0.4090942442417145, 2.653508186340332, -26.116687774658203, 0.8951412439346313, 
551, 676611373, -122.85204315185547, -85.76895141601562, -115.12248229980469, 9.996001243591309, -0.39362236857414246, -0.36366021633148193, 2.699639320373535, -26.227033615112305, 0.8653774261474609, 
552, 676619706, -125.23960876464844, -85.66505432128906, -112.7156982421875, 9.960793495178223, -0.3812682628631592, -0.40474894642829895, 2.587808132171631, -26.35308265686035, 0.8134574890136719, 
553, 676628039, -127.44255828857422, -85.54051971435547, -110.48430633544922, 9.964093208312988, -0.38996660709381104, -0.3973138630390167, 2.589729070663452, -26.430770874023438, 0.8805667161941528, 
554, 676636372, -129.61561584472656, -85.42097473144531, -108.27790069580078, 9.99708080291748, -0.3769558072090149, -0.3988104462623596, 2.6000258922576904, -26.639270782470703, 0.8373299837112427, 
555, 676644705, -131.59671020507812, -85.28437042236328, -106.26924133300781, 9.995903015136719, -0.39765456318855286, -0.3961663842201233, 2.494802474975586, -26.533533096313477, 0.7407642006874084, 
556, 676653038, -133.5354461669922, -85.15337371826172, -104.30347442626953, 9.99133586883545, -0.39906150102615356, -0.37956076860427856, 2.622591972351074, -26.562068939208984, 0.8611511588096619, 
557, 676661371, -135.28118896484375, -85.00499725341797, -102.5296859741211, 9.960415840148926, -0.3840179443359375, -0.3944924771785736, 2.5973105430603027, -26.52564239501953, 0.9334855675697327, 
558, 676669704, -137.00978088378906, -84.86508178710938, -100.77286529541016, 10.006730079650879, -0.3971864879131317, -0.3767210841178894, 2.5904974937438965, -26.44805908203125, 0.7981400489807129, 
559, 676678037, -138.5483856201172, -84.7104263305664, -99.2057113647461, 9.992855072021484, -0.38405272364616394, -0.3727448880672455, 2.627509832382202, -26.265684127807617, 0.8318740129470825, 
560, 676686370, -140.06454467773438, -84.56404876708984, -97.66431427001953, 9.995028495788574, -0.3916085660457611, -0.3901676833629608, 2.608170986175537, -26.049165725708008, 0.8801824450492859, 
561, 676694703, -141.40428161621094, -84.40574645996094, -96.2956771850586, 10.003301620483398, -0.3838813602924347, -0.37746381759643555, 2.686551094055176, -25.740493774414062, 0.8196560740470886, 
562, 676703036, -142.74012756347656, -84.2560806274414, -94.93251037597656, 9.981464385986328, -0.38541319966316223, -0.3657963275909424, 2.598642587661743, -25.562650680541992, 0.8415050506591797, 
563, 676711369, -143.90553283691406, -84.09508514404297, -93.73902893066406, 9.991114616394043, -0.39410656690597534, -0.3841659724712372, 2.624922513961792, -25.211503982543945, 0.8969342708587646, 
564, 676719702, -145.07655334472656, -83.94456481933594, -92.53995513916016, 9.984941482543945, -0.40997129678726196, -0.3706870377063751, 2.6807360649108887, -24.910945892333984, 0.8438358306884766, 
565, 676728035, -146.08714294433594, -83.78514862060547, -91.50127410888672, 9.97984790802002, -0.40031057596206665, -0.38807711005210876, 2.6359875202178955, -24.36016082763672, 0.8460129499435425, 
566, 676736368, -147.1054229736328, -83.63585662841797, -90.45613861083984, 9.984918594360352, -0.3762053847312927, -0.3771609663963318, 2.6180577278137207, -24.046218872070312, 0.9303861856460571, 
567, 676744701, -147.98641967773438, -83.47805786132812, -89.54732513427734, 9.983423233032227, -0.38838106393814087, -0.3610767424106598, 2.6274328231811523, -23.59539794921875, 0.8594604730606079, 
568, 676753034, -148.88319396972656, -83.33300018310547, -88.62505340576172, 9.987098693847656, -0.3755052089691162, -0.36285263299942017, 2.5087876319885254, -23.040773391723633, 0.8052095174789429, 
569, 676761367, -149.6390838623047, -83.18062591552734, -87.8413314819336, 10.006268501281738, -0.4166438579559326, -0.3620387613773346, 2.6793527603149414, -22.40791893005371, 0.8806946277618408, 
570, 676769700, -150.4146728515625, -83.04068756103516, -87.03924560546875, 9.973467826843262, -0.39885035157203674, -0.36794984340667725, 2.663010835647583, -21.914587020874023, 0.9070260524749756, 
571, 676778033, -151.06150817871094, -82.89485931396484, -86.36483001708984, 9.960622787475586, -0.40264731645584106, -0.37630191445350647, 2.695669174194336, -21.15945816040039, 0.9354579448699951, 
572, 676786366, -151.73916625976562, -82.76261901855469, -85.65985107421875, 9.976064682006836, -0.40232977271080017, -0.35507404804229736, 2.74953556060791, -20.646324157714844, 0.8481389284133911, 
573, 676794699, -152.29251098632812, -82.6259994506836, -85.07894897460938, 9.96300220489502, -0.3951159715652466, -0.35672226548194885, 2.7611896991729736, -19.668779373168945, 0.8828973174095154, 
574, 676803032, -152.8737335205078, -82.50312805175781, -84.47156524658203, 9.978166580200195, -0.3868274688720703, -0.3527147173881531, 2.6916725635528564, -19.121660232543945, 0.9199867844581604, 
575, 676811365, -153.34410095214844, -82.3752212524414, -83.97398376464844, 9.956220626831055, -0.4066528081893921, -0.3420173227787018, 2.753505229949951, -18.284303665161133, 0.9610462784767151, 
576, 676819698, -153.84310913085938, -82.26294708251953, -83.44828033447266, 9.95193099975586, -0.38207629323005676, -0.3707434833049774, 2.782423734664917, -17.566465377807617, 0.9417587518692017, 
577, 676828031, -154.23809814453125, -82.14579772949219, -83.02586364746094, 9.9540376663208, -0.385502427816391, -0.3341202437877655, 2.8160037994384766, -16.701187133789062, 1.0060503482818604, 
578, 676836364, -154.66358947753906, -82.04527282714844, -82.57403564453125, 9.97020435333252, -0.39272335171699524, -0.34636232256889343, 2.8038883209228516, -15.89008903503418, 0.9637101292610168, 
579, 676844697, -154.99620056152344, -81.93992614746094, -82.21418762207031, 9.944656372070312, -0.37676048278808594, -0.35359540581703186, 2.8559622764587402, -15.046073913574219, 0.96137934923172, 
580, 676853030, -155.3607177734375, -81.85163116455078, -81.82392883300781, 9.944680213928223, -0.39249521493911743, -0.37056130170822144, 2.779362678527832, -14.231269836425781, 0.9361619353294373, 
581, 676861363, -155.63514709472656, -81.75838470458984, -81.52267456054688, 9.937149047851562, -0.4023674726486206, -0.3145643174648285, 2.8477649688720703, -13.373230934143066, 0.9901183247566223, 
582, 676869696, -155.9348602294922, -81.68426513671875, -81.19680786132812, 9.939253807067871, -0.3900763988494873, -0.3373970091342926, 2.8991477489471436, -12.312521934509277, 0.9799239635467529, 
583, 676878029, -156.14939880371094, -81.60543823242188, -80.95586395263672, 9.943157196044922, -0.4105268716812134, -0.3457883894443512, 2.8583438396453857, -11.405340194702148, 1.0422176122665405, 
584, 676886362, -156.3932647705078, -81.54576110839844, -80.68614196777344, 9.93159294128418, -0.3874360918998718, -0.3841192126274109, 2.917794942855835, -10.412586212158203, 0.99721360206604, 
585, 676894695, -156.55398559570312, -81.4812240600586, -80.49946594238281, 9.936814308166504, -0.3907921016216278, -0.3565756380558014, 2.8653109073638916, -9.4784574508667, 1.1039992570877075, 
586, 676903028, -156.7417449951172, -81.43640899658203, -80.28594207763672, 9.920388221740723, -0.3980526328086853, -0.31944358348846436, 2.9655394554138184, -8.449918746948242, 1.0875035524368286, 
587, 676911361, -156.85365295410156, -81.38723754882812, -80.14803314208984, 9.929287910461426, -0.40640515089035034, -0.30553779006004333, 2.9279890060424805, -7.462618827819824, 1.1025649309158325, 
588, 676919694, -156.9882049560547, -81.35778045654297, -79.9874496459961, 9.922276496887207, -0.39372149109840393, -0.33938032388687134, 3.0618231296539307, -6.447346210479736, 1.165012240409851, 
589, 676928027, -157.05029296875, -81.32515716552734, -79.8988265991211, 9.926461219787598, -0.38791465759277344, -0.3468199670314789, 3.049682140350342, -5.301468372344971, 1.1093013286590576, 
590, 676936360, -157.1356964111328, -81.31226348876953, -79.7883071899414, 9.913759231567383, -0.3766525685787201, -0.3247936964035034, 2.9986329078674316, -4.328510761260986, 1.1928037405014038, 
591, 676944693, -157.14768981933594, -81.29423522949219, -79.75068664550781, 9.927742958068848, -0.3816738426685333, -0.35052329301834106, 3.0277562141418457, -3.319617748260498, 1.2596311569213867, 
592, 676953026, -157.1875, -81.29776000976562, -79.68671417236328, 9.933133125305176, -0.36926618218421936, -0.34970152378082275, 2.963848352432251, -2.2335994243621826, 1.1864001750946045, 
593, 676961359, -157.1571807861328, -81.29613494873047, -79.69111633300781, 9.928605079650879, -0.3726895749568939, -0.3391813337802887, 3.1031646728515625, -1.2240405082702637, 1.2063281536102295, 
594, 676969692, -157.1466522216797, -81.31565856933594, -79.67568969726562, 9.92879581451416, -0.379573792219162, -0.35026559233665466, 3.2286489009857178, -0.18389740586280823, 1.2506920099258423, 
595, 676978025, -157.06741333007812, -81.32978057861328, -79.72859191894531, 9.907976150512695, -0.3948141634464264, -0.34119606018066406, 3.2325937747955322, 0.8687324523925781, 1.2770490646362305, 
596, 676986358, -157.01161193847656, -81.36595916748047, -79.75952911376953, 9.927600860595703, -0.3970515727996826, -0.32790204882621765, 3.1580045223236084, 1.93246591091156, 1.2298418283462524, 
597, 676994691, -156.88661193847656, -81.39588165283203, -79.85858154296875, 9.94200611114502, -0.397365540266037, -0.34766632318496704, 3.241584062576294, 2.92724609375, 1.2924686670303345, 
598, 677003024, -156.7777557373047, -81.44751739501953, -79.9417953491211, 9.934192657470703, -0.417580246925354, -0.3479675054550171, 3.300215005874634, 3.9404172897338867, 1.3371655941009521, 
599, 677011357, -156.603271484375, -81.49298858642578, -80.0907974243164, 9.936421394348145, -0.41221585869789124, -0.32815784215927124, 3.254826784133911, 4.984710216522217, 1.3368327617645264, 
600, 677019690, -156.43955993652344, -81.56063842773438, -80.22925567626953, 9.945088386535645, -0.39393526315689087, -0.36548686027526855, 3.3083603382110596, 6.022213935852051, 1.4111649990081787, 
601, 677028023, -156.21234130859375, -81.62114715576172, -80.43134307861328, 9.942056655883789, -0.38807451725006104, -0.3233155906200409, 3.289508581161499, 7.005622863769531, 1.3877283334732056, 
602, 677036356, -155.9932861328125, -81.70350646972656, -80.62582397460938, 9.93343734741211, -0.3810752332210541, -0.3731928765773773, 3.2931711673736572, 7.9662580490112305, 1.4789403676986694, 
603, 677044689, -155.71383666992188, -81.77803039550781, -80.88043975830078, 9.93216609954834, -0.40903663635253906, -0.35156115889549255, 3.307669162750244, 8.884554862976074, 1.4061962366104126, 
604, 677053022, -155.4418182373047, -81.87462615966797, -81.1278305053711, 9.932598114013672, -0.3950265347957611, -0.35413435101509094, 3.3553626537323, 9.824904441833496, 1.4278656244277954, 
605, 677061355, -155.1031494140625, -81.96337127685547, -81.44145202636719, 9.943646430969238, -0.39463919401168823, -0.34673869609832764, 3.371474266052246, 10.79394245147705, 1.4204888343811035, 
