sep=,
PacketCounter,SampleTimeFine,Euler_X,Euler_Y,Euler_Z,Acc_X,Acc_Y,Acc_Z,Gyr_X,Gyr_Y,Gyr_Z,
0, 526407104, -158.1768341064453, -79.49796295166016, -153.5193328857422, 0, 0, 0, 0, 0, 0, 
1, 526415437, -157.6270751953125, -79.6830062866211, -154.03822326660156, 9.851022720336914, -0.6806531548500061, -1.858350157737732, 4.729159355163574, 24.80799102783203, 2.070502281188965, 
2, 526423770, -157.52291870117188, -79.69063568115234, -154.13134765625, 9.809654235839844, -0.6704859137535095, -1.8882390260696411, 4.6131134033203125, 24.120206832885742, 2.129709243774414, 
3, 526432103, -156.97727966308594, -79.86453247070312, -154.64602661132812, 9.806376457214355, -0.6511486768722534, -1.8999823331832886, 4.697461128234863, 23.487638473510742, 2.0358333587646484, 
4, 526440436, -157.15725708007812, -79.78751373291016, -154.41038513183594, 9.79686164855957, -0.6557649970054626, -1.9478029012680054, 4.567353248596191, 22.730928421020508, 2.02132248878479, 
5, 526448769, -156.62998962402344, -79.94760131835938, -154.90830993652344, 9.773208618164062, -0.662017822265625, -1.955088496208191, 4.4511284828186035, 21.794279098510742, 2.132296323776245, 
6, 526457102, -156.92185974121094, -79.83260345458984, -154.58409118652344, 9.764419555664062, -0.6647771596908569, -1.9725979566574097, 4.462988376617432, 20.916095733642578, 2.134063720703125, 
7, 526465435, -156.4274444580078, -79.9788818359375, -155.04917907714844, 9.722612380981445, -0.6695617437362671, -2.0349507331848145, 4.38656759262085, 19.993350982666016, 2.032925844192505, 
8, 526473768, -156.72850036621094, -79.84915924072266, -154.68402099609375, 9.72899055480957, -0.6684753894805908, -2.025242328643799, 4.340077877044678, 18.899137496948242, 2.123523473739624, 
9, 526482101, -156.2720184326172, -79.978759765625, -155.11227416992188, 9.709624290466309, -0.6599394679069519, -2.0222880840301514, 4.1723551750183105, 17.845365524291992, 2.0572075843811035, 
10, 526490434, -156.558349609375, -79.85289764404297, -154.76165771484375, 9.694836616516113, -0.6391578912734985, -2.0773842334747314, 4.2115960121154785, 16.740522384643555, 2.0374081134796143, 
11, 526498767, -156.14498901367188, -79.96409606933594, -155.1475830078125, 9.693766593933105, -0.6857295632362366, -2.089077949523926, 4.000969886779785, 15.47253704071045, 2.084486722946167, 
12, 526507100, -156.4375, -79.83348846435547, -154.78749084472656, 9.684150695800781, -0.6774305105209351, -2.1145894527435303, 4.0043768882751465, 14.22141170501709, 2.030773878097534, 
13, 526515433, -156.072021484375, -79.92520904541016, -155.12521362304688, 9.667752265930176, -0.6597892642021179, -2.122114896774292, 3.961857318878174, 12.939827919006348, 2.0878424644470215, 
14, 526523766, -156.3667755126953, -79.78958892822266, -154.75418090820312, 9.648956298828125, -0.6493867039680481, -2.1279428005218506, 3.7487199306488037, 11.570897102355957, 2.014559507369995, 
15, 526532099, -156.06161499023438, -79.85980224609375, -155.03192138671875, 9.626904487609863, -0.6463391184806824, -2.1508066654205322, 3.8091957569122314, 10.084964752197266, 1.991353154182434, 
16, 526540432, -156.3740692138672, -79.7197036743164, -154.6494598388672, 9.635941505432129, -0.6593053340911865, -2.120011568069458, 3.605203866958618, 8.806506156921387, 1.9936071634292603, 
17, 526548765, -156.12925720214844, -79.76834869384766, -154.8681640625, 9.619821548461914, -0.6619517803192139, -2.1666297912597656, 3.546431541442871, 7.220434665679932, 1.9304808378219604, 
18, 526557098, -156.44451904296875, -79.62254333496094, -154.49102783203125, 9.597003936767578, -0.6526713371276855, -2.1422765254974365, 3.3905560970306396, 5.865506172180176, 2.0517003536224365, 
19, 526565431, -156.2493133544922, -79.65016174316406, -154.66180419921875, 9.609539985656738, -0.6386535167694092, -2.1638195514678955, 3.269810676574707, 4.527546405792236, 2.042965888977051, 
20, 526573764, -156.5849151611328, -79.49835205078125, -154.25680541992188, 9.6058988571167, -0.6349660158157349, -2.1419949531555176, 3.0700454711914062, 2.906729221343994, 1.9045209884643555, 
21, 526582097, -156.46115112304688, -79.50265502929688, -154.357666015625, 9.616670608520508, -0.6549655199050903, -2.1582868099212646, 2.943920850753784, 1.3499983549118042, 1.8224014043807983, 
22, 526590430, -156.80838012695312, -79.34407043457031, -153.9538116455078, 9.599827766418457, -0.6401495337486267, -2.149151086807251, 2.84505033493042, -0.07460146397352219, 1.870018720626831, 
23, 526598763, -156.737548828125, -79.32524108886719, -154.0020294189453, 9.598745346069336, -0.6548970341682434, -2.1427996158599854, 2.807422637939453, -1.647341012954712, 1.8769086599349976, 
24, 526607096, -157.09442138671875, -79.158447265625, -153.5818328857422, 9.603978157043457, -0.6639184355735779, -2.1563947200775146, 2.7083981037139893, -3.095787763595581, 1.8154345750808716, 
25, 526615429, -157.0770721435547, -79.1180191040039, -153.576416015625, 9.61306381225586, -0.6526569724082947, -2.1770544052124023, 2.7100887298583984, -4.513241291046143, 1.7802406549453735, 
26, 526623762, -157.4380645751953, -78.94121551513672, -153.15243530273438, 9.613489151000977, -0.6502668857574463, -2.1623036861419678, 2.501588821411133, -6.023993968963623, 1.8378469944000244, 
27, 526632095, -157.46861267089844, -78.87831115722656, -153.09999084472656, 9.619569778442383, -0.6533817052841187, -2.1579713821411133, 2.5137557983398438, -7.420329570770264, 1.7755022048950195, 
28, 526640428, -157.84361267089844, -78.6915512084961, -152.66734313964844, 9.601339340209961, -0.6452288627624512, -2.155991792678833, 2.3074586391448975, -9.004903793334961, 1.6378257274627686, 
29, 526648761, -157.9284210205078, -78.60570526123047, -152.56240844726562, 9.616583824157715, -0.6478314995765686, -2.140775442123413, 2.159536361694336, -10.467501640319824, 1.5865203142166138, 
30, 526657094, -158.30865478515625, -78.40950775146484, -152.12554931640625, 9.632369995117188, -0.6469404697418213, -2.142179012298584, 2.070604085922241, -11.792296409606934, 1.553990364074707, 
31, 526665427, -158.43304443359375, -78.30174255371094, -151.9822998046875, 9.648369789123535, -0.6529188752174377, -2.1251747608184814, 1.906224250793457, -13.288640022277832, 1.542604684829712, 
32, 526673760, -158.8113555908203, -78.09584045410156, -151.54458618164062, 9.653090476989746, -0.649669885635376, -2.111349582672119, 1.8979637622833252, -14.545953750610352, 1.5614951848983765, 
33, 526682093, -158.9677276611328, -77.96723937988281, -151.369140625, 9.663262367248535, -0.6372432112693787, -2.1007885932922363, 1.8306241035461426, -15.953022003173828, 1.487009048461914, 
34, 526690426, -159.34814453125, -77.75181579589844, -150.9379119873047, 9.674360275268555, -0.6502396464347839, -2.086287021636963, 1.797914981842041, -17.30607032775879, 1.4098846912384033, 
35, 526698759, -159.533447265625, -77.6032485961914, -150.73475646972656, 9.703322410583496, -0.6301330327987671, -2.0626115798950195, 1.5758906602859497, -18.50164222717285, 1.3907252550125122, 
36, 526707092, -159.90863037109375, -77.3819351196289, -150.31231689453125, 9.716780662536621, -0.6553762555122375, -2.0347840785980225, 1.451277256011963, -19.57382583618164, 1.2942874431610107, 
37, 526715425, -160.11541748046875, -77.2161636352539, -150.08853149414062, 9.686888694763184, -0.6490662097930908, -2.018442392349243, 1.372513771057129, -20.69972801208496, 1.2554309368133545, 
38, 526723758, -160.47970581054688, -76.98966979980469, -149.6779327392578, 9.747501373291016, -0.6522982120513916, -1.9794750213623047, 1.3641635179519653, -21.7215576171875, 1.1647051572799683, 
39, 526732091, -160.7026824951172, -76.80745697021484, -149.43821716308594, 9.731032371520996, -0.6445413827896118, -1.9877511262893677, 1.251230239868164, -22.77507209777832, 1.1217244863510132, 
40, 526740424, -161.052490234375, -76.57643127441406, -149.04412841796875, 9.766045570373535, -0.6566068530082703, -1.9583559036254883, 1.1375927925109863, -23.74089813232422, 1.1453282833099365, 
41, 526748757, -161.28404235839844, -76.37911224365234, -148.7960968017578, 9.785555839538574, -0.6322534084320068, -1.9503296613693237, 1.1440858840942383, -24.63970375061035, 1.060455560684204, 
42, 526757090, -161.62135314941406, -76.1451644897461, -148.4136962890625, 9.792374610900879, -0.6727651357650757, -1.907772183418274, 1.1472878456115723, -25.520614624023438, 0.9688589572906494, 
43, 526765423, -161.85784912109375, -75.93528747558594, -148.16188049316406, 9.81828498840332, -0.6620239615440369, -1.8634587526321411, 0.9323842525482178, -26.189327239990234, 0.9758260250091553, 
44, 526773756, -162.1740264892578, -75.70195007324219, -147.80418395996094, 9.806657791137695, -0.6665229201316833, -1.8682502508163452, 0.9265444278717041, -26.807464599609375, 0.9256221055984497, 
45, 526782089, -162.40774536132812, -75.48187255859375, -147.55494689941406, 9.843942642211914, -0.659479558467865, -1.8258543014526367, 0.9086527228355408, -27.408349990844727, 0.950660228729248, 
46, 526790422, -162.70669555664062, -75.2503890991211, -147.21807861328125, 9.863138198852539, -0.678220272064209, -1.8061193227767944, 0.8631107211112976, -27.91830825805664, 0.7499725222587585, 
47, 526798755, -162.93930053710938, -75.02178955078125, -146.9706573486328, 9.844236373901367, -0.6835430264472961, -1.7859381437301636, 0.7701951265335083, -28.44447898864746, 0.8331037163734436, 
48, 526807088, -163.215087890625, -74.79341125488281, -146.6596221923828, 9.869696617126465, -0.675297200679779, -1.7921391725540161, 0.8395456075668335, -28.778921127319336, 0.722642183303833, 
49, 526815421, -163.4432373046875, -74.55870056152344, -146.41688537597656, 9.884050369262695, -0.6845791935920715, -1.77491295337677, 0.7033545970916748, -29.179885864257812, 0.7146505117416382, 
50, 526823754, -163.69911193847656, -74.33348846435547, -146.1114959716797, 9.889888763427734, -0.6642270684242249, -1.7499189376831055, 0.6889082193374634, -29.514562606811523, 0.7026118040084839, 
51, 526832087, -163.91688537597656, -74.0939712524414, -145.87879943847656, 9.919378280639648, -0.6611884832382202, -1.7490155696868896, 0.7230519652366638, -29.703311920166016, 0.7263306379318237, 
52, 526840420, -164.1508331298828, -73.87648010253906, -145.6156463623047, 9.919034957885742, -0.679548978805542, -1.6631736755371094, 0.7153677940368652, -29.655521392822266, 0.6459018588066101, 
53, 526848753, -164.35946655273438, -73.6355209350586, -145.39231872558594, 9.958887100219727, -0.6795545816421509, -1.6373732089996338, 0.6804298162460327, -29.851055145263672, 0.6391139626502991, 
54, 526857086, -164.57272338867188, -73.4261703491211, -145.13720703125, 9.974979400634766, -0.6995285749435425, -1.541353702545166, 0.7091690301895142, -29.755773544311523, 0.5953905582427979, 
55, 526865419, -164.76673889160156, -73.18836212158203, -144.92784118652344, 9.909969329833984, -0.6962043642997742, -1.5093525648117065, 0.7693496942520142, -29.417612075805664, 0.5925601720809937, 
56, 526873752, -164.95372009277344, -72.99300384521484, -144.70603942871094, 9.940363883972168, -0.6974393725395203, -1.5416662693023682, 0.791416347026825, -29.15967559814453, 0.5927523374557495, 
57, 526882085, -165.1337890625, -72.76012420654297, -144.51182556152344, 9.9263334274292, -0.6960197687149048, -1.4879412651062012, 0.6486937999725342, -28.76304054260254, 0.594109833240509, 
58, 526890418, -165.2972412109375, -72.57892608642578, -144.31700134277344, 9.939364433288574, -0.7112109661102295, -1.5001863241195679, 0.8320664167404175, -28.40462303161621, 0.5946990251541138, 
59, 526898751, -165.4600830078125, -72.35198974609375, -144.13861083984375, 9.951993942260742, -0.6948350071907043, -1.492672085762024, 0.8561949133872986, -27.977399826049805, 0.6450309753417969, 
60, 526907084, -165.5990753173828, -72.18559265136719, -143.9684295654297, 9.947762489318848, -0.715964138507843, -1.4516006708145142, 0.9105995297431946, -27.470056533813477, 0.7001271843910217, 
61, 526915417, -165.74842834472656, -71.96636962890625, -143.80368041992188, 9.976033210754395, -0.6888291835784912, -1.4421685934066772, 0.8664405345916748, -26.994836807250977, 0.626793622970581, 
62, 526923750, -165.8678741455078, -71.81730651855469, -143.6555938720703, 9.95853042602539, -0.6895322203636169, -1.3991611003875732, 0.9852906465530396, -26.221179962158203, 0.6321724653244019, 
63, 526932083, -166.00186157226562, -71.60918426513672, -143.5055694580078, 9.999709129333496, -0.6896665692329407, -1.3056256771087646, 0.9955362677574158, -25.601442337036133, 0.601384162902832, 
64, 526940416, -166.10130310058594, -71.48001861572266, -143.38182067871094, 9.961058616638184, -0.6807749271392822, -1.3271660804748535, 1.0819844007492065, -24.634275436401367, 0.5817636847496033, 
65, 526948749, -166.21958923339844, -71.28692626953125, -143.24713134765625, 9.952526092529297, -0.6986293792724609, -1.306265115737915, 1.1083669662475586, -23.742334365844727, 0.5451352000236511, 
66, 526957082, -166.29684448242188, -71.17922973632812, -143.1478271484375, 9.97453784942627, -0.708166778087616, -1.3011029958724976, 1.224860429763794, -22.76071548461914, 0.6320186257362366, 
67, 526965415, -166.3980712890625, -71.00161743164062, -143.02886962890625, 9.95281982421875, -0.6746257543563843, -1.2778401374816895, 1.3414820432662964, -21.818931579589844, 0.5468513369560242, 
68, 526973748, -166.45864868164062, -70.91622924804688, -142.9482421875, 9.957887649536133, -0.6945907473564148, -1.2591508626937866, 1.2873334884643555, -20.748741149902344, 0.526923418045044, 
69, 526982081, -166.54624938964844, -70.7548599243164, -142.84262084960938, 9.951898574829102, -0.6774247288703918, -1.2279493808746338, 1.4431190490722656, -19.824398040771484, 0.4874005913734436, 
70, 526990414, -166.58706665039062, -70.69292449951172, -142.7790069580078, 9.955377578735352, -0.6956735849380493, -1.2133663892745972, 1.536278247833252, -18.51814842224121, 0.5024617314338684, 
71, 526998747, -166.65731811523438, -70.55047607421875, -142.68994140625, 9.948725700378418, -0.7002066969871521, -1.235329270362854, 1.6359175443649292, -17.482486724853516, 0.5172667503356934, 
72, 527007080, -166.6779327392578, -70.51300811767578, -142.6461181640625, 9.957860946655273, -0.6938401460647583, -1.1853816509246826, 1.831097960472107, -16.091814041137695, 0.4883226752281189, 
73, 527015413, -166.7315216064453, -70.39192962646484, -142.5723114013672, 9.95669937133789, -0.6889232993125916, -1.1912823915481567, 1.9026130437850952, -14.85423755645752, 0.4683179557323456, 
74, 527023746, -166.73472595214844, -70.37916564941406, -142.5501708984375, 9.958934783935547, -0.6794275045394897, -1.1625595092773438, 1.9255123138427734, -13.586535453796387, 0.45802101492881775, 
75, 527032079, -166.77206420898438, -70.27957153320312, -142.4916229248047, 9.94462776184082, -0.6814888119697571, -1.0952364206314087, 2.114980459213257, -12.222884178161621, 0.4514380991458893, 
76, 527040412, -166.75442504882812, -70.29344940185547, -142.49171447753906, 9.944519996643066, -0.690398633480072, -1.1299573183059692, 2.1611881256103516, -10.780288696289062, 0.49290749430656433, 
77, 527048745, -166.77540588378906, -70.21686553955078, -142.44967651367188, 9.957324981689453, -0.6864148378372192, -1.0910308361053467, 2.208420991897583, -9.397683143615723, 0.46104341745376587, 
78, 527057078, -166.7376708984375, -70.25745391845703, -142.47177124023438, 9.948185920715332, -0.6947866678237915, -1.105811357498169, 2.336517572402954, -7.902503490447998, 0.5217748284339905, 
79, 527065411, -166.73828125, -70.20488739013672, -142.44911193847656, 9.942595481872559, -0.6858866214752197, -1.0879548788070679, 2.4670989513397217, -6.420566082000732, 0.5674192905426025, 
80, 527073744, -166.68101501464844, -70.2732925415039, -142.49240112304688, 9.944839477539062, -0.695803165435791, -1.081223726272583, 2.506877899169922, -4.854359149932861, 0.4930099844932556, 
81, 527082077, -166.6646270751953, -70.24452209472656, -142.4863739013672, 9.939509391784668, -0.6862058043479919, -1.0977879762649536, 2.6319267749786377, -3.49642014503479, 0.5729776620864868, 
82, 527090410, -166.58509826660156, -70.33780670166016, -142.54824829101562, 9.941187858581543, -0.6710229516029358, -1.1006057262420654, 2.7912473678588867, -2.052443027496338, 0.6036378741264343, 
83, 527098743, -166.55120849609375, -70.33458709716797, -142.55923461914062, 9.929510116577148, -0.6976591944694519, -1.1020512580871582, 2.8109703063964844, -0.36925479769706726, 0.5357088446617126, 
84, 527107076, -166.4528045654297, -70.45552825927734, -142.64601135253906, 9.940210342407227, -0.691508412361145, -1.0877766609191895, 2.9659361839294434, 1.111644983291626, 0.5062780976295471, 
85, 527115409, -166.39849853515625, -70.47647094726562, -142.67568969726562, 9.930561065673828, -0.6946197152137756, -1.0911784172058105, 3.1463115215301514, 2.6120755672454834, 0.5833258032798767, 
86, 527123742, -166.27859497070312, -70.62337493896484, -142.7827911376953, 9.947487831115723, -0.6894667744636536, -1.1062135696411133, 3.206786870956421, 4.140195369720459, 0.49336859583854675, 
87, 527132075, -166.20741271972656, -70.6681137084961, -142.8290557861328, 9.945710182189941, -0.6835740208625793, -1.1065078973770142, 3.2890851497650146, 5.523952484130859, 0.5274611115455627, 
88, 527140408, -166.06398010253906, -70.83887481689453, -142.95933532714844, 9.94386100769043, -0.6913201212882996, -1.1239581108093262, 3.4465367794036865, 6.99595308303833, 0.5724398493766785, 
89, 527148741, -165.97219848632812, -70.90677642822266, -143.02499389648438, 9.93810749053955, -0.6936674118041992, -1.08963143825531, 3.55263090133667, 8.388318061828613, 0.5537158250808716, 
90, 527157074, -165.80650329589844, -71.10035705566406, -143.17739868164062, 9.951268196105957, -0.6938959360122681, -1.1438214778900146, 3.5552945137023926, 9.770974159240723, 0.599129855632782, 
91, 527165407, -165.6933135986328, -71.19056701660156, -143.26365661621094, 9.942854881286621, -0.6944161057472229, -1.1566005945205688, 3.767637014389038, 11.154450416564941, 0.5994884967803955, 
92, 527173740, -165.49884033203125, -71.40502166748047, -143.44692993164062, 9.943218231201172, -0.707095742225647, -1.1921652555465698, 3.855621814727783, 12.409137725830078, 0.7966156601905823, 
93, 527182073, -165.35983276367188, -71.5152359008789, -143.55825805664062, 9.947919845581055, -0.7108356356620789, -1.2246309518814087, 4.005310535430908, 13.700838088989258, 0.7995611429214478, 
94, 527190406, -165.14373779296875, -71.74937438964844, -143.76043701171875, 9.952320098876953, -0.6787553429603577, -1.228858470916748, 4.047037124633789, 14.917131423950195, 0.6773557066917419, 
95, 527198739, -164.98486328125, -71.87824249267578, -143.89144897460938, 9.9747314453125, -0.6854453682899475, -1.231346607208252, 4.120985507965088, 16.01549530029297, 0.7738702893257141, 
96, 527207072, -164.74288940429688, -72.12796783447266, -144.1197509765625, 9.974905014038086, -0.672899067401886, -1.2624342441558838, 4.198339939117432, 17.011940002441406, 0.7799919843673706, 
97, 527215405, -164.56051635742188, -72.27433013916016, -144.2733154296875, 9.950369834899902, -0.7034106850624084, -1.2755340337753296, 4.329152584075928, 18.219831466674805, 0.802686333656311, 
98, 527223738, -164.28956604003906, -72.54023742675781, -144.5328826904297, 9.980183601379395, -0.6972372531890869, -1.2632867097854614, 4.4181623458862305, 19.23617935180664, 0.8404416441917419, 
99, 527232071, -164.08236694335938, -72.70205688476562, -144.71084594726562, 9.943182945251465, -0.7006053924560547, -1.2824177742004395, 4.475026607513428, 20.199867248535156, 0.8622650504112244, 
100, 527240404, -163.784423828125, -72.98085021972656, -144.99526977539062, 9.977795600891113, -0.7197940945625305, -1.301447868347168, 4.503637790679932, 21.08576202392578, 0.8455134630203247, 
101, 527248737, -163.55316162109375, -73.15675354003906, -145.19729614257812, 9.971912384033203, -0.7060485482215881, -1.3339592218399048, 4.556735515594482, 21.999881744384766, 0.8582437634468079, 
102, 527257070, -163.2232666015625, -73.44705963134766, -145.51438903808594, 9.975863456726074, -0.6895386576652527, -1.3365833759307861, 4.718567371368408, 22.828201293945312, 0.8999695181846619, 
103, 527265403, -162.96522521972656, -73.63431549072266, -145.7427215576172, 9.962536811828613, -0.6987746953964233, -1.4315322637557983, 4.686113357543945, 23.5000057220459, 0.9104199409484863, 
104, 527273736, -162.60372924804688, -73.93376922607422, -146.09298706054688, 9.954240798950195, -0.7023305892944336, -1.430468201637268, 4.808191299438477, 24.344484329223633, 0.9300917387008667, 
105, 527282069, -162.3149871826172, -74.13032531738281, -146.35145568847656, 9.958406448364258, -0.7044501900672913, -1.471458077430725, 4.8263258934021, 24.780210494995117, 1.046918272972107, 
106, 527290402, -161.9207763671875, -74.43255615234375, -146.73350524902344, 9.960062026977539, -0.6956902742385864, -1.4698776006698608, 4.881063461303711, 25.166393280029297, 1.0849554538726807, 
107, 527298735, -161.60511779785156, -74.63508605957031, -147.01895141601562, 9.954309463500977, -0.708524227142334, -1.5013340711593628, 4.866847991943359, 25.642616271972656, 1.0883877277374268, 
108, 527307068, -161.17356872558594, -74.94193267822266, -147.43896484375, 9.947266578674316, -0.707084596157074, -1.4976767301559448, 4.899442672729492, 26.249048233032227, 1.2073532342910767, 
109, 527315401, -160.8248291015625, -75.1506576538086, -147.75717163085938, 9.927838325500488, -0.7036300301551819, -1.531551718711853, 4.968588829040527, 26.579435348510742, 1.1757581233978271, 
110, 527323734, -160.35882568359375, -75.45690155029297, -148.21441650390625, 9.931767463684082, -0.6960662007331848, -1.544373869895935, 4.90635871887207, 26.71292495727539, 1.2958506345748901, 
111, 527332067, -159.98226928710938, -75.66700744628906, -148.56048583984375, 9.94991683959961, -0.7165448665618896, -1.5615999698638916, 4.986364841461182, 26.90247917175293, 1.2018589973449707, 
112, 527340400, -159.4825897216797, -75.97149658203125, -149.04849243164062, 9.973221778869629, -0.6990531086921692, -1.6244889497756958, 4.87930965423584, 27.063913345336914, 1.2954663038253784, 
113, 527348733, -159.07423400878906, -76.18028259277344, -149.42657470703125, 9.932575225830078, -0.7150610089302063, -1.680083990097046, 4.975555896759033, 26.9392147064209, 1.3664817810058594, 
114, 527357066, -158.54014587402344, -76.47901153564453, -149.95335388183594, 9.886603355407715, -0.6913264989852905, -1.7102488279342651, 4.950965404510498, 26.966670989990234, 1.3666611909866333, 
115, 527365399, -158.1056671142578, -76.68512725830078, -150.35687255859375, 9.893500328063965, -0.6806159019470215, -1.7598539590835571, 5.049849510192871, 26.765562057495117, 1.3235907554626465, 
116, 527373732, -157.54486083984375, -76.97477722167969, -150.90696716308594, 9.874171257019043, -0.6585025787353516, -1.7750605344772339, 4.910315990447998, 26.4552059173584, 1.3347716331481934, 
117, 527382065, -157.08436584472656, -77.1741714477539, -151.3380126953125, 9.866945266723633, -0.678922176361084, -1.790785551071167, 4.861814975738525, 26.148740768432617, 1.4665437936782837, 
118, 527390398, -156.49578857421875, -77.45209503173828, -151.92092895507812, 9.853341102600098, -0.6705253720283508, -1.782967209815979, 4.831666469573975, 25.675567626953125, 1.43019700050354, 
119, 527398731, -156.01681518554688, -77.64311981201172, -152.36981201171875, 9.82810115814209, -0.6800768375396729, -1.8425660133361816, 4.893909454345703, 25.249759674072266, 1.4220006465911865, 
120, 527407064, -155.4093780517578, -77.90702056884766, -152.96783447265625, 9.834701538085938, -0.6759893298149109, -1.8399922847747803, 4.785945415496826, 24.563220977783203, 1.403097152709961, 
121, 527415397, -154.9222869873047, -78.08706665039062, -153.42617797851562, 9.821255683898926, -0.6657065153121948, -1.8348699808120728, 4.6790571212768555, 23.983488082885742, 1.3272534608840942, 
122, 527423730, -154.2964324951172, -78.33654022216797, -154.04676818847656, 9.818854331970215, -0.654861569404602, -1.8490914106369019, 4.619375705718994, 23.410423278808594, 1.4546587467193604, 
123, 527432063, -153.7931671142578, -78.50479125976562, -154.52203369140625, 9.80374526977539, -0.6586945056915283, -1.9000979661941528, 4.551882266998291, 22.719863891601562, 1.47712242603302, 
124, 527440396, -153.1634979248047, -78.73632049560547, -155.14511108398438, 9.794195175170898, -0.660114586353302, -1.939812421798706, 4.525730133056641, 21.75077247619629, 1.4075285196304321, 
125, 527448729, -152.6638641357422, -78.88927459716797, -155.61659240722656, 9.764628410339355, -0.663149893283844, -1.9848154783248901, 4.481724739074707, 20.871793746948242, 1.4421590566635132, 
126, 527457062, -152.03933715820312, -79.10183715820312, -156.23394775390625, 9.748038291931152, -0.6528684496879578, -2.0171337127685547, 4.450859069824219, 19.92022132873535, 1.3528163433074951, 
127, 527465395, -151.55380249023438, -79.23897552490234, -156.6920166015625, 9.743422508239746, -0.6483685970306396, -2.0191590785980225, 4.310108661651611, 18.908357620239258, 1.3446710109710693, 
128, 527473728, -150.94288635253906, -79.43101501464844, -157.2972869873047, 9.71749210357666, -0.6526368260383606, -1.9933832883834839, 4.171560764312744, 17.890113830566406, 1.4024564027786255, 
129, 527482061, -150.4788055419922, -79.55007934570312, -157.73419189453125, 9.705362319946289, -0.669927179813385, -2.0286014080047607, 4.178707122802734, 16.6462345123291, 1.3752797842025757, 
130, 527490394, -149.89227294921875, -79.72107696533203, -158.3148956298828, 9.689091682434082, -0.6999262571334839, -2.065025568008423, 4.162275791168213, 15.694345474243164, 1.3985503911972046, 
131, 527498727, -149.4563446044922, -79.82273864746094, -158.72337341308594, 9.69035816192627, -0.6712466478347778, -2.094989776611328, 4.120972633361816, 14.416641235351562, 1.375612735748291, 
132, 527507060, -148.9164581298828, -79.97016143798828, -159.2586212158203, 9.67487621307373, -0.6592599749565125, -2.1374056339263916, 3.9456684589385986, 13.071688652038574, 1.3544553518295288, 
133, 527515393, -148.52655029296875, -80.0515365600586, -159.62191772460938, 9.66004467010498, -0.646154522895813, -2.1007673740386963, 3.906836986541748, 11.75045394897461, 1.4171077013015747, 
134, 527523726, -148.0396728515625, -80.1754150390625, -160.10391235351562, 9.632623672485352, -0.6524509191513062, -2.150144577026367, 3.6652183532714844, 10.433525085449219, 1.4287365674972534, 
135, 527532059, -147.70448303222656, -80.2377700805664, -160.41314697265625, 9.630399703979492, -0.6598113775253296, -2.1468586921691895, 3.7020509243011475, 9.155783653259277, 1.3936192989349365, 
136, 527540392, -147.2867431640625, -80.33842468261719, -160.82748413085938, 9.63394832611084, -0.6578605771064758, -2.1130661964416504, 3.456794261932373, 7.692261695861816, 1.3870875835418701, 
137, 527548725, -147.02841186523438, -80.3806381225586, -161.0611572265625, 9.62421989440918, -0.6564032435417175, -2.1277313232421875, 3.4197824001312256, 6.252204895019531, 1.2250009775161743, 
138, 527557058, -146.6958770751953, -80.45777130126953, -161.3894500732422, 9.605205535888672, -0.6455199122428894, -2.1453359127044678, 3.405515193939209, 4.734407424926758, 1.2614243030548096, 
139, 527565391, -146.50942993164062, -80.47792053222656, -161.55160522460938, 9.60962200164795, -0.6593834161758423, -2.136643648147583, 3.2550315856933594, 3.239176034927368, 1.3831943273544312, 
140, 527573724, -146.2614288330078, -80.53086853027344, -161.7968292236328, 9.617303848266602, -0.6516963243484497, -2.1605288982391357, 3.084439992904663, 1.7762701511383057, 1.3791981935501099, 
141, 527582057, -146.15589904785156, -80.53102111816406, -161.87857055664062, 9.600313186645508, -0.6394575238227844, -2.1349594593048096, 3.0604143142700195, 0.3420012891292572, 1.359578013420105, 
142, 527590390, -146.00071716308594, -80.56101989746094, -162.0308380126953, 9.607569694519043, -0.6579676270484924, -2.1485421657562256, 2.985902786254883, -1.158544659614563, 1.3495372533798218, 
143, 527598723, -145.9810333251953, -80.54133605957031, -162.02838134765625, 9.603694915771484, -0.6559346914291382, -2.160675525665283, 2.7311689853668213, -2.5624351501464844, 1.3082982301712036, 
144, 527607056, -145.92250061035156, -80.54930114746094, -162.0840301513672, 9.592297554016113, -0.6495516300201416, -2.1748039722442627, 2.706502676010132, -4.039838790893555, 1.2746156454086304, 
145, 527615389, -145.98912048339844, -80.50947570800781, -161.9952392578125, 9.620513916015625, -0.637780487537384, -2.1427881717681885, 2.5908801555633545, -5.5367865562438965, 1.2564808130264282, 
146, 527623722, -146.0279083251953, -80.49479675292969, -161.95448303222656, 9.626813888549805, -0.6448811888694763, -2.1340832710266113, 2.460836410522461, -7.015700817108154, 1.2295857667922974, 
147, 527632055, -146.17724609375, -80.433837890625, -161.78402709960938, 9.61640453338623, -0.6461907029151917, -2.130364179611206, 2.330921173095703, -8.568282127380371, 1.3055832386016846, 
148, 527640388, -146.3018035888672, -80.39727020263672, -161.65992736816406, 9.637092590332031, -0.6650474667549133, -2.1024813652038574, 2.218705177307129, -9.827581405639648, 1.2772539854049683, 
149, 527648721, -146.52647399902344, -80.31632995605469, -161.41392517089844, 9.63886547088623, -0.665102481842041, -2.1061017513275146, 2.228489637374878, -11.444734573364258, 1.2931859493255615, 
150, 527657054, -146.7322540283203, -80.25789642333984, -161.2077178955078, 9.64527416229248, -0.6508740186691284, -2.1422393321990967, 2.1359968185424805, -12.667328834533691, 1.2875763177871704, 
151, 527665387, -147.02842712402344, -80.15857696533203, -160.89141845703125, 9.6342191696167, -0.6811296343803406, -2.0891027450561523, 1.957030177116394, -14.128083229064941, 1.1430352926254272, 
152, 527673720, -147.30882263183594, -80.07918548583984, -160.6112823486328, 9.672417640686035, -0.6512036323547363, -2.1033618450164795, 1.8920981884002686, -15.37685489654541, 1.244442105293274, 
153, 527682053, -147.65985107421875, -79.96148681640625, -160.24069213867188, 9.67674732208252, -0.6691809892654419, -2.0839059352874756, 1.7703791856765747, -16.687816619873047, 1.1358122825622559, 
154, 527690386, -148.00294494628906, -79.86216735839844, -159.899169921875, 9.69892406463623, -0.6613119840621948, -2.0311191082000732, 1.6591626405715942, -17.909595489501953, 1.1903706789016724, 
155, 527698719, -148.3921661376953, -79.72708892822266, -159.48983764648438, 9.721953392028809, -0.666176438331604, -2.030421733856201, 1.7460203170776367, -18.996763229370117, 1.1854525804519653, 
156, 527707052, -148.77914428710938, -79.61035919189453, -159.10360717773438, 9.706408500671387, -0.6438373923301697, -2.0009708404541016, 1.5594974756240845, -20.07135772705078, 1.1461604833602905, 
157, 527715385, -149.206787109375, -79.45881652832031, -158.65771484375, 9.717723846435547, -0.6364931464195251, -1.96804940700531, 1.4178764820098877, -21.234500885009766, 1.0796915292739868, 
158, 527723718, -149.63047790527344, -79.324951171875, -158.23684692382812, 9.758708000183105, -0.6447439789772034, -1.9901520013809204, 1.3640354871749878, -22.189403533935547, 1.0938564538955688, 
159, 527732051, -150.07606506347656, -79.15873718261719, -157.7726287841797, 9.774284362792969, -0.6647198796272278, -1.9306365251541138, 1.3713995218276978, -23.12674331665039, 1.0735571384429932, 
160, 527740384, -150.5283966064453, -79.0085220336914, -157.32269287109375, 9.783979415893555, -0.6623393893241882, -1.9496779441833496, 1.2100169658660889, -24.186981201171875, 0.9898369908332825, 
161, 527748717, -150.98619079589844, -78.82825469970703, -156.84693908691406, 9.80711841583252, -0.6833993196487427, -1.9077370166778564, 1.220826268196106, -24.88922691345215, 1.0353024005889893, 
162, 527757050, -151.44471740722656, -78.66511535644531, -156.39218139648438, 9.804051399230957, -0.6679094433784485, -1.8549827337265015, 1.1360175609588623, -25.64189910888672, 1.0087661743164062, 
163, 527765383, -151.9032440185547, -78.47350311279297, -155.91610717773438, 9.814404487609863, -0.6372601985931396, -1.8686351776123047, 1.1120939254760742, -26.272293090820312, 0.9895553588867188, 
164, 527773716, -152.36448669433594, -78.29814147949219, -155.45877075195312, 9.801726341247559, -0.6526800990104675, -1.8192155361175537, 1.0142474174499512, -27.02883529663086, 0.9932695031166077, 
165, 527782049, -152.81781005859375, -78.09674835205078, -154.9886016845703, 9.838801383972168, -0.6542779803276062, -1.8144603967666626, 0.9672325849533081, -27.437448501586914, 0.9319618344306946, 
166, 527790382, -153.27084350585938, -77.91294860839844, -154.53982543945312, 9.840900421142578, -0.657549262046814, -1.822832465171814, 0.947432816028595, -27.918128967285156, 0.9355735182762146, 
167, 527798715, -153.70982360839844, -77.70391082763672, -154.08499145507812, 9.858750343322754, -0.650875449180603, -1.7905617952346802, 0.8164542317390442, -28.26462173461914, 0.9338700175285339, 
168, 527807048, -154.1519012451172, -77.51185607910156, -153.6468963623047, 9.874496459960938, -0.655886173248291, -1.7692296504974365, 0.8812328577041626, -28.79665756225586, 0.9205505847930908, 
169, 527815381, -154.57322692871094, -77.29503631591797, -153.20843505859375, 9.873550415039062, -0.6682562828063965, -1.755119800567627, 0.9402480125427246, -29.10825538635254, 0.9698068499565125, 
170, 527823714, -154.99664306640625, -77.09693908691406, -152.789306640625, 9.892536163330078, -0.6799635291099548, -1.6997066736221313, 0.8989577889442444, -29.376667022705078, 0.9533112049102783, 
171, 527832047, -155.39852905273438, -76.87718200683594, -152.37091064453125, 9.908316612243652, -0.7073637247085571, -1.6857496500015259, 0.848728358745575, -29.3756160736084, 0.8582568168640137, 
172, 527840380, -155.80091857910156, -76.677490234375, -151.97418212890625, 9.95437240600586, -0.7050736546516418, -1.633223056793213, 0.7372294664382935, -29.453046798706055, 0.8839222192764282, 
173, 527848713, -156.17234802246094, -76.45586395263672, -151.5858154296875, 9.991105079650879, -0.6886956691741943, -1.5670409202575684, 0.9248537421226501, -29.39896583557129, 0.993628203868866, 
174, 527857046, -156.54054260253906, -76.25736999511719, -151.2245635986328, 9.916683197021484, -0.6907387971878052, -1.5655202865600586, 0.8143154978752136, -29.10360336303711, 1.0338295698165894, 
175, 527865379, -156.8831024169922, -76.03770446777344, -150.86593627929688, 9.926125526428223, -0.6857612729072571, -1.5129708051681519, 0.8506365418434143, -28.99464225769043, 1.0198954343795776, 
176, 527873712, -157.22218322753906, -75.8425064086914, -150.5331573486328, 9.945265769958496, -0.7046671509742737, -1.4811360836029053, 0.8889553546905518, -28.600385665893555, 1.0460476875305176, 
177, 527882045, -157.53317260742188, -75.62852478027344, -150.2053680419922, 9.970067977905273, -0.6997763514518738, -1.4970148801803589, 0.9865456819534302, -28.142581939697266, 0.9957156777381897, 
178, 527890378, -157.842041015625, -75.4394302368164, -149.90225219726562, 9.961158752441406, -0.6979343891143799, -1.4675198793411255, 1.038004755973816, -27.790592193603516, 1.0407967567443848, 
179, 527898711, -158.12110900878906, -75.23064422607422, -149.60597229003906, 9.954401969909668, -0.6963715553283691, -1.4394800662994385, 1.095444679260254, -27.32430648803711, 1.115731120109558, 
180, 527907044, -158.39967346191406, -75.04906463623047, -149.33255004882812, 9.969951629638672, -0.6868227124214172, -1.4423658847808838, 1.0929856300354004, -26.78857421875, 1.0931649208068848, 
181, 527915377, -158.65045166015625, -74.84854125976562, -149.06483459472656, 9.969327926635742, -0.6820768117904663, -1.44097101688385, 1.1294091939926147, -26.17453384399414, 1.115346908569336, 
182, 527923710, -158.898681640625, -74.67770385742188, -148.82406616210938, 9.96603012084961, -0.7036438584327698, -1.3516486883163452, 1.1389119625091553, -25.43758773803711, 1.1190097332000732, 
183, 527932043, -159.1151885986328, -74.48908996582031, -148.59005737304688, 9.974472999572754, -0.6967073082923889, -1.3397821187973022, 1.2988728284835815, -24.545045852661133, 1.2120661735534668, 
184, 527940376, -159.3307647705078, -74.33207702636719, -148.38133239746094, 9.958306312561035, -0.6814060211181641, -1.3214603662490845, 1.3459646701812744, -23.72066307067871, 1.1480433940887451, 
185, 527948709, -159.52169799804688, -74.15705108642578, -148.1736297607422, 9.963218688964844, -0.6825481057167053, -1.2712440490722656, 1.2908682823181152, -22.791553497314453, 1.118919849395752, 
186, 527957042, -159.70726013183594, -74.0163803100586, -147.99481201171875, 9.95960807800293, -0.6791727542877197, -1.2594149112701416, 1.3876134157180786, -21.73771095275879, 1.1402053833007812, 
187, 527965375, -159.86749267578125, -73.85688018798828, -147.81639099121094, 9.962545394897461, -0.6554307341575623, -1.2650437355041504, 1.5670536756515503, -20.769899368286133, 1.1309200525283813, 
188, 527973708, -160.0254364013672, -73.73255920410156, -147.66419982910156, 9.974770545959473, -0.6789835691452026, -1.2370662689208984, 1.6399645805358887, -19.791536331176758, 1.0932285785675049, 
189, 527982041, -160.1587371826172, -73.5888671875, -147.5137481689453, 9.948310852050781, -0.6727802157402039, -1.2390927076339722, 1.5626351833343506, -18.712614059448242, 1.1741697788238525, 
190, 527990374, -160.28713989257812, -73.483154296875, -147.3915252685547, 9.963685989379883, -0.6776576638221741, -1.226207971572876, 1.7207902669906616, -17.55556297302246, 1.1491059064865112, 
191, 527998707, -160.3921661376953, -73.35916900634766, -147.267333984375, 9.946191787719727, -0.6821947693824768, -1.195319652557373, 1.9153432846069336, -16.226287841796875, 1.0837513208389282, 
192, 528007040, -160.49061584472656, -73.27399444580078, -147.17527770996094, 9.959360122680664, -0.7074790596961975, -1.182502269744873, 1.9396637678146362, -15.093574523925781, 1.1731064319610596, 
193, 528015373, -160.56634521484375, -73.16815948486328, -147.08004760742188, 9.950448989868164, -0.689943253993988, -1.1671139001846313, 2.10683536529541, -13.864785194396973, 1.205957055091858, 
194, 528023706, -160.63299560546875, -73.10421752929688, -147.01840209960938, 9.960380554199219, -0.6926429271697998, -1.143049716949463, 2.218564510345459, -12.53978443145752, 1.2772668600082397, 
195, 528032039, -160.67926025390625, -73.0191879272461, -146.95166015625, 9.954846382141113, -0.6849262714385986, -1.1291234493255615, 2.3698675632476807, -11.205357551574707, 1.263332486152649, 
196, 528040372, -160.71905517578125, -72.97905731201172, -146.91757202148438, 9.932918548583984, -0.695952832698822, -1.1240291595458984, 2.473707914352417, -9.743578910827637, 1.164589762687683, 
197, 528048705, -160.7388916015625, -72.91670989990234, -146.87745666503906, 9.920205116271973, -0.6798009276390076, -1.0963940620422363, 2.487488269805908, -8.349421501159668, 1.2264224290847778, 
198, 528057038, -160.74868774414062, -72.900634765625, -146.87310791015625, 9.939253807067871, -0.674013078212738, -1.0935548543930054, 2.6730122566223145, -6.870993614196777, 1.196914792060852, 
199, 528065371, -160.7391815185547, -72.86234283447266, -146.8616485595703, 9.93203353881836, -0.6824362277984619, -1.0899090766906738, 2.7336153984069824, -5.30435037612915, 1.225346565246582, 
200, 528073704, -160.7202606201172, -72.87091827392578, -146.88502502441406, 9.938907623291016, -0.6611283421516418, -1.100466251373291, 2.8638253211975098, -3.9356915950775146, 1.1782548427581787, 
201, 528082037, -160.68472290039062, -72.85530090332031, -146.89842224121094, 9.945364952087402, -0.6756804585456848, -1.0735669136047363, 3.0092241764068604, -2.4672648906707764, 1.1635905504226685, 
202, 528090370, -160.63510131835938, -72.88953399658203, -146.95387268066406, 9.939870834350586, -0.666106641292572, -1.0907657146453857, 3.0059714317321777, -0.8739064335823059, 1.2102596759796143, 
203, 528098703, -160.56851196289062, -72.89789581298828, -146.99766540527344, 9.93536376953125, -0.6858423352241516, -1.060962200164795, 3.2649571895599365, 0.5938277244567871, 1.2208129167556763, 
204, 528107036, -160.4905242919922, -72.9565658569336, -147.08091735839844, 9.959527969360352, -0.6733492612838745, -1.0924946069717407, 3.2892773151397705, 2.0268800258636475, 1.1385527849197388, 
205, 528115369, -160.39869689941406, -72.98699188232422, -147.14999389648438, 9.937959671020508, -0.6854029893875122, -1.0830862522125244, 3.3946547508239746, 3.3677854537963867, 1.1648842096328735, 
206, 528123702, -160.28807067871094, -73.07039642333984, -147.26571655273438, 9.948417663574219, -0.6788195371627808, -1.1191240549087524, 3.448265552520752, 5.012475967407227, 1.2028191089630127, 
207, 528132035, -160.16461181640625, -73.12512969970703, -147.36659240722656, 9.936800956726074, -0.6960370540618896, -1.116990089416504, 3.5453813076019287, 6.471756458282471, 1.1912795305252075, 
208, 528140368, -160.02337646484375, -73.23210144042969, -147.51370239257812, 9.928056716918945, -0.6885704398155212, -1.1445947885513306, 3.6249141693115234, 7.845678806304932, 1.179215431213379, 
209, 528148701, -159.87074279785156, -73.30779266357422, -147.64295959472656, 9.944738388061523, -0.689882755279541, -1.1580663919448853, 3.7849388122558594, 9.144896507263184, 1.1833008527755737, 
210, 528157034, -159.69903564453125, -73.43667602539062, -147.81915283203125, 9.956347465515137, -0.6904512643814087, -1.1840107440948486, 3.9165704250335693, 10.48705768585205, 1.1081231832504272, 
211, 528165367, -159.51429748535156, -73.53254699707031, -147.97994995117188, 9.934199333190918, -0.6873691082000732, -1.2166695594787598, 4.001994609832764, 11.756576538085938, 1.2407793998718262, 
212, 528173700, -159.306396484375, -73.68171691894531, -148.19241333007812, 9.950834274291992, -0.6721401214599609, -1.2221506834030151, 4.066965103149414, 13.024008750915527, 1.2462481260299683, 
213, 528182033, -159.08802795410156, -73.79654693603516, -148.3861846923828, 9.943572998046875, -0.6953818202018738, -1.2306071519851685, 4.22790002822876, 14.239201545715332, 1.3009089231491089, 
214, 528190366, -158.84835815429688, -73.96500396728516, -148.62989807128906, 9.95507526397705, -0.6760209798812866, -1.26901113986969, 4.2764892578125, 15.38497543334961, 1.1576228141784668, 
215, 528198699, -158.59901428222656, -74.09754180908203, -148.85452270507812, 9.974534034729004, -0.6810443997383118, -1.226681113243103, 4.358429908752441, 16.53554344177246, 1.2520625591278076, 
216, 528207032, -158.32081604003906, -74.28367614746094, -149.13735961914062, 9.947651863098145, -0.6889925003051758, -1.2901660203933716, 4.447592735290527, 17.651655197143555, 1.2439426183700562, 
217, 528215365, -158.03970336914062, -74.4327163696289, -149.39358520507812, 9.96471118927002, -0.6927960515022278, -1.2721136808395386, 4.492443561553955, 18.68793487548828, 1.1643338203430176, 
218, 528223698, -157.72633361816406, -74.63477325439453, -149.71182250976562, 9.97529411315918, -0.675972044467926, -1.290618896484375, 4.51288366317749, 19.673519134521484, 1.1948915719985962, 
219, 528232031, -157.40994262695312, -74.79822540283203, -150.00326538085938, 9.961496353149414, -0.7051496505737305, -1.3159259557724, 4.605236530303955, 20.633146286010742, 1.155458688735962, 
220, 528240364, -157.05433654785156, -75.01399230957031, -150.3636932373047, 9.974044799804688, -0.6908818483352661, -1.337287425994873, 4.66868257522583, 21.507461547851562, 1.29208505153656, 
221, 528248697, -156.7003936767578, -75.18869018554688, -150.6925048828125, 9.998146057128906, -0.6911112666130066, -1.3496092557907104, 4.732757091522217, 22.22913360595703, 1.2187641859054565, 
222, 528257030, -156.30845642089844, -75.41600036621094, -151.0885009765625, 9.95890998840332, -0.6994377970695496, -1.3910785913467407, 4.794641017913818, 23.043304443359375, 1.1591854095458984, 
223, 528265363, -155.91632080078125, -75.60028839111328, -151.45510864257812, 9.950164794921875, -0.7028969526290894, -1.4277023077011108, 4.861648082733154, 23.622112274169922, 1.235208511352539, 
224, 528273696, -155.4829864501953, -75.83602142333984, -151.893798828125, 9.96861743927002, -0.7167806625366211, -1.4460887908935547, 4.885342121124268, 24.276174545288086, 1.1829557418823242, 
225, 528282029, -155.05343627929688, -76.02780151367188, -152.29798889160156, 9.947803497314453, -0.7021980881690979, -1.468665599822998, 4.905884265899658, 24.75813102722168, 1.2078527212142944, 
226, 528290362, -154.57061767578125, -76.26993560791016, -152.78549194335938, 9.963351249694824, -0.698150634765625, -1.470171570777893, 4.967064380645752, 25.381698608398438, 1.360705852508545, 
227, 528298695, -154.1003875732422, -76.46697998046875, -153.2303924560547, 9.951892852783203, -0.7057319283485413, -1.4862786531448364, 4.963708400726318, 25.67259979248047, 1.2279472351074219, 
228, 528307028, -153.57655334472656, -76.71320343017578, -153.75892639160156, 9.940413475036621, -0.6930097937583923, -1.5205353498458862, 5.024081230163574, 26.10896110534668, 1.278074026107788, 
229, 528315361, -153.0648193359375, -76.91265106201172, -154.24465942382812, 9.937729835510254, -0.7071751356124878, -1.5801504850387573, 5.088040828704834, 26.2418270111084, 1.267290711402893, 
230, 528323694, -152.49765014648438, -77.16057586669922, -154.81814575195312, 9.933934211730957, -0.680176854133606, -1.5401273965835571, 5.068983554840088, 26.608444213867188, 1.2329163551330566, 
231, 528332027, -151.94395446777344, -77.36051177978516, -155.34600830078125, 9.97801685333252, -0.6928548812866211, -1.6017817258834839, 5.1066365242004395, 26.60987663269043, 1.3083759546279907, 
232, 528340360, -151.3335723876953, -77.60671997070312, -155.9605712890625, 9.951139450073242, -0.703091025352478, -1.6651339530944824, 5.0659356117248535, 26.73277473449707, 1.248669147491455, 
233, 528348693, -150.7477569580078, -77.80461883544922, -156.52096557617188, 9.90533447265625, -0.6758021712303162, -1.7112689018249512, 5.048286437988281, 26.561975479125977, 1.1683939695358276, 
234, 528357026, -150.09893798828125, -78.04590606689453, -157.17471313476562, 9.899290084838867, -0.6773024797439575, -1.753186821937561, 4.959098815917969, 26.46541404724121, 1.2601443529129028, 
235, 528365359, -149.4764862060547, -78.23757934570312, -157.77178955078125, 9.871200561523438, -0.6682623624801636, -1.7716944217681885, 5.045263767242432, 26.115825653076172, 1.2886015176773071, 
236, 528373692, -148.79811096191406, -78.47048950195312, -158.452880859375, 9.860608100891113, -0.6446272730827332, -1.7858357429504395, 5.032944202423096, 25.741809844970703, 1.1808682680130005, 
237, 528382025, -148.1468048095703, -78.65509033203125, -159.0795440673828, 9.855890274047852, -0.6597594618797302, -1.7984966039657593, 4.926555156707764, 25.490087509155273, 1.2721190452575684, 
238, 528390358, -147.43695068359375, -78.87875366210938, -159.7937774658203, 9.821227073669434, -0.6591077446937561, -1.7959929704666138, 4.894050598144531, 24.971702575683594, 1.2182778120040894, 
239, 528398691, -146.76568603515625, -79.0539321899414, -160.44058227539062, 9.838338851928711, -0.6702300310134888, -1.8332810401916504, 4.855052947998047, 24.51296615600586, 1.2024866342544556, 
240, 528407024, -146.03482055664062, -79.26655578613281, -161.17445373535156, 9.815559387207031, -0.6532808542251587, -1.8308086395263672, 4.9036946296691895, 23.886083602905273, 1.1453156471252441, 
241, 528415357, -145.34979248046875, -79.43096160888672, -161.8347625732422, 9.80845832824707, -0.6408383846282959, -1.8661643266677856, 4.837686538696289, 23.33745002746582, 1.1214687824249268, 
242, 528423690, -144.60244750976562, -79.63182830810547, -162.5842742919922, 9.802416801452637, -0.6505414247512817, -1.9018657207489014, 4.748753547668457, 22.72073745727539, 1.1030776500701904, 
243, 528432023, -143.91510009765625, -79.78366088867188, -163.24713134765625, 9.791146278381348, -0.6577688455581665, -1.9352413415908813, 4.72260046005249, 21.849512100219727, 1.0485447645187378, 
244, 528440356, -143.1731414794922, -79.96943664550781, -163.9923095703125, 9.778491020202637, -0.6541134715080261, -1.989535927772522, 4.56056547164917, 21.007678985595703, 0.9932437539100647, 
245, 528448689, -142.49636840820312, -80.1062240600586, -164.64572143554688, 9.751667976379395, -0.6497502326965332, -1.941975474357605, 4.51886510848999, 20.030855178833008, 1.0432683229446411, 
246, 528457022, -141.7679443359375, -80.27552795410156, -165.37767028808594, 9.744606971740723, -0.6441731452941895, -1.995771884918213, 4.485796928405762, 19.098773956298828, 0.9809998869895935, 
247, 528465355, -141.12100219726562, -80.39765930175781, -166.001220703125, 9.71738338470459, -0.6386992931365967, -2.0103187561035156, 4.3981451988220215, 18.018238067626953, 0.8530823588371277, 
248, 528473688, -140.42764282226562, -80.54828643798828, -166.6979217529297, 9.726057052612305, -0.6450393795967102, -2.017894744873047, 4.223660469055176, 16.819440841674805, 0.9895039200782776, 
249, 528482021, -139.82003784179688, -80.6532211303711, -167.2831268310547, 9.675492286682129, -0.6579331159591675, -2.0286214351654053, 4.168281555175781, 15.730216026306152, 0.8968569040298462, 
250, 528490354, -139.1730499267578, -80.7867431640625, -167.93267822265625, 9.689821243286133, -0.6568073034286499, -2.069862127304077, 4.2063703536987305, 14.582775115966797, 0.8917085528373718, 
251, 528498687, -138.6157989501953, -80.87549591064453, -168.4671173095703, 9.665094375610352, -0.6552971005439758, -2.0762014389038086, 4.10650110244751, 13.444326400756836, 0.87096107006073, 
252, 528507020, -138.038330078125, -80.99139404296875, -169.04856872558594, 9.64773178100586, -0.657920241355896, -2.1187102794647217, 3.9249207973480225, 12.10177993774414, 0.7496519088745117, 
253, 528515353, -137.5558624267578, -81.0623779296875, -169.50955200195312, 9.655146598815918, -0.6614195108413696, -2.1280806064605713, 3.8215928077697754, 10.798757553100586, 0.840198278427124, 
254, 528523686, -137.06187438964844, -81.1589126586914, -170.00680541992188, 9.646411895751953, -0.6435242295265198, -2.1196017265319824, 3.7607593536376953, 9.379293441772461, 0.7472953796386719, 
255, 528532019, -136.6649627685547, -81.21239471435547, -170.38275146484375, 9.623832702636719, -0.635086715221405, -2.104804277420044, 3.617600440979004, 8.08380126953125, 0.8375598192214966, 
256, 528540352, -136.26783752441406, -81.29022216796875, -170.78231811523438, 9.642298698425293, -0.6622620224952698, -2.1446034908294678, 3.6057417392730713, 6.595307350158691, 0.7380742430686951, 
257, 528548685, -135.9763641357422, -81.32681274414062, -171.0528564453125, 9.615891456604004, -0.6411582827568054, -2.1390397548675537, 3.468397855758667, 5.233345985412598, 0.673295795917511, 
258, 528557018, -135.6916046142578, -81.38614654541016, -171.3427276611328, 9.62268352508545, -0.6526911854743958, -2.1475071907043457, 3.2962958812713623, 3.7522802352905273, 0.666149377822876, 
259, 528565351, -135.51620483398438, -81.40486145019531, -171.49801635742188, 9.603364944458008, -0.6582868695259094, -2.1523022651672363, 3.2150986194610596, 2.211737871170044, 0.6060839891433716, 
260, 528573684, -135.35169982910156, -81.44590759277344, -171.666015625, 9.617683410644531, -0.6390945315361023, -2.1540896892547607, 3.19734787940979, 0.8148912191390991, 0.6158686876296997, 
261, 528582017, -135.2859649658203, -81.44760131835938, -171.7111358642578, 9.59126091003418, -0.644071638584137, -2.127943277359009, 3.1385891437530518, -0.6483859419822693, 0.6245006918907166, 
262, 528590350, -135.24794006347656, -81.46940612792969, -171.7534637451172, 9.597108840942383, -0.6492451429367065, -2.173125743865967, 2.9064981937408447, -2.203733205795288, 0.6437368988990784, 
263, 528598683, -135.29747009277344, -81.45431518554688, -171.68487548828125, 9.61197280883789, -0.648199200630188, -2.1442394256591797, 2.797330856323242, -3.521944761276245, 0.6128974556922913, 
264, 528607016, -135.3848114013672, -81.45873260498047, -171.60177612304688, 9.638765335083008, -0.6415168642997742, -2.1614034175872803, 2.7469985485076904, -5.063716411590576, 0.5467102527618408, 
265, 528615349, -135.5572967529297, -81.42606353759766, -171.41110229492188, 9.611937522888184, -0.64768385887146, -2.1249117851257324, 2.544748544692993, -6.55815315246582, 0.5244514346122742, 
266, 528623682, -135.77069091796875, -81.41254425048828, -171.20248413085938, 9.625149726867676, -0.6334660053253174, -2.136237621307373, 2.443187952041626, -7.980024337768555, 0.4662815034389496, 
267, 528632015, -136.0501708984375, -81.36327362060547, -170.90499877929688, 9.639535903930664, -0.6495485901832581, -2.1244049072265625, 2.3918063640594482, -9.3464937210083, 0.4762711226940155, 
268, 528640348, -136.37442016601562, -81.33157348632812, -170.58584594726562, 9.635881423950195, -0.6481998562812805, -2.099860429763794, 2.3209829330444336, -10.771439552307129, 0.4898722767829895, 
269, 528648681, -136.7584991455078, -81.26497650146484, -170.1839141845703, 9.65046215057373, -0.6535887122154236, -2.1111574172973633, 2.2225730419158936, -12.214289665222168, 0.41113412380218506, 
270, 528657014, -137.1890411376953, -81.2153091430664, -169.7586212158203, 9.63835620880127, -0.6580999493598938, -2.082598924636841, 2.117426872253418, -13.517646789550781, 0.41149279475212097, 
271, 528665347, -137.64830017089844, -81.13148498535156, -169.28208923339844, 9.653846740722656, -0.6653938889503479, -2.097663164138794, 2.0398669242858887, -14.74661922454834, 0.5673041939735413, 
272, 528673680, -138.17344665527344, -81.0634765625, -168.76255798339844, 9.673783302307129, -0.6811524033546448, -2.091583013534546, 1.95649254322052, -16.213748931884766, 0.3385433852672577, 
273, 528682013, -138.7106170654297, -80.96308135986328, -168.2089385986328, 9.693074226379395, -0.6625326871871948, -2.063997268676758, 1.8106452226638794, -17.315214157104492, 0.45606160163879395, 
274, 528690346, -139.29478454589844, -80.87781524658203, -167.6307830810547, 9.709590911865234, -0.659839391708374, -2.017587423324585, 1.7910501956939697, -18.443191528320312, 0.4853130578994751, 
275, 528698679, -139.8857421875, -80.76122283935547, -167.02305603027344, 9.714688301086426, -0.6275496482849121, -2.0078396797180176, 1.7444835901260376, -19.612735748291016, 0.44184568524360657, 
276, 528707012, -140.52503967285156, -80.6595458984375, -166.3907470703125, 9.73343563079834, -0.6499556303024292, -2.0041792392730713, 1.552428126335144, -20.628007888793945, 0.4470966160297394, 
277, 528715345, -141.1508331298828, -80.52751159667969, -165.74966430664062, 9.733306884765625, -0.6451529860496521, -1.968397855758667, 1.4757134914398193, -21.643842697143555, 0.4903078079223633, 
278, 528723678, -141.8295440673828, -80.41009521484375, -165.0791473388672, 9.768843650817871, -0.6569531559944153, -1.9655539989471436, 1.4209502935409546, -22.61859703063965, 0.3817034959793091, 
279, 528732011, -142.4835205078125, -80.2635498046875, -164.4100341796875, 9.772448539733887, -0.6491861939430237, -1.9386099576950073, 1.3606032133102417, -23.58466148376465, 0.38795340061187744, 
280, 528740344, -143.18572998046875, -80.13056182861328, -163.7167205810547, 9.820828437805176, -0.6585578918457031, -1.9302618503570557, 1.2615528106689453, -24.46202850341797, 0.38116562366485596, 
281, 528748677, -143.84506225585938, -79.96998596191406, -163.04319763183594, 9.799626350402832, -0.6514149308204651, -1.8610973358154297, 1.176231861114502, -25.233123779296875, 0.47975489497184753, 
282, 528757010, -144.54551696777344, -79.822998046875, -162.3528594970703, 9.810790061950684, -0.6456729769706726, -1.8361445665359497, 1.2192126512527466, -25.927474975585938, 0.5428428649902344, 
283, 528765343, -145.19361877441406, -79.65021514892578, -161.6903533935547, 9.829869270324707, -0.6533360481262207, -1.8420028686523438, 1.1639370918273926, -26.5477237701416, 0.5995528101921082, 
284, 528773676, -145.8856964111328, -79.49189758300781, -161.00790405273438, 9.854496955871582, -0.6653590798377991, -1.8375602960586548, 1.1091995239257812, -27.087724685668945, 0.5479657053947449, 
285, 528782009, -146.51795959472656, -79.30970001220703, -160.36111450195312, 9.870901107788086, -0.6435070633888245, -1.8029204607009888, 1.137836217880249, -27.552465438842773, 0.5529091358184814, 
286, 528790342, -147.1949005126953, -79.1422119140625, -159.695068359375, 9.845952033996582, -0.6638523936271667, -1.7969878911972046, 1.017936110496521, -27.9872989654541, 0.48172727227211, 
287, 528798675, -147.80531311035156, -78.95162200927734, -159.07077026367188, 9.856990814208984, -0.6732261180877686, -1.7798347473144531, 1.0299748182296753, -28.38588523864746, 0.5454043745994568, 
288, 528807008, -148.45639038085938, -78.77549743652344, -158.4315643310547, 9.856863975524902, -0.6574906706809998, -1.7585440874099731, 0.9177330136299133, -28.72686004638672, 0.5658188462257385, 
289, 528815341, -149.03469848632812, -78.57918548583984, -157.84024047851562, 9.916994094848633, -0.6865336298942566, -1.7058184146881104, 0.9230095744132996, -28.818098068237305, 0.5793944597244263, 
290, 528823674, -149.65289306640625, -78.39720916748047, -157.2333221435547, 9.919116020202637, -0.6968615055084229, -1.7006726264953613, 1.0221879482269287, -29.128028869628906, 0.602344810962677, 
291, 528832007, -150.19854736328125, -78.1971206665039, -156.6741485595703, 9.929327964782715, -0.6976101994514465, -1.6327338218688965, 0.9760822653770447, -29.054771423339844, 0.5249640941619873, 
292, 528840340, -150.77459716796875, -78.01225280761719, -156.1103515625, 9.971001625061035, -0.7072444558143616, -1.566031575202942, 1.0020551681518555, -29.11125373840332, 0.7394835352897644, 
293, 528848673, -151.27618408203125, -77.81021118164062, -155.59512329101562, 9.940157890319824, -0.6950430870056152, -1.5393964052200317, 1.0245572328567505, -28.94733238220215, 0.6952604055404663, 
294, 528857006, -151.8111572265625, -77.62690734863281, -155.0725555419922, 9.936286926269531, -0.7075248956680298, -1.5094074010849, 0.9123668670654297, -28.645496368408203, 0.7047121524810791, 
295, 528865339, -152.2673797607422, -77.4262924194336, -154.60311889648438, 9.939516067504883, -0.7061717510223389, -1.4979758262634277, 1.0274004936218262, -28.43730354309082, 0.8249454498291016, 
296, 528873672, -152.7565460205078, -77.24505615234375, -154.1272735595703, 9.954679489135742, -0.7157610654830933, -1.4950357675552368, 1.0250568389892578, -28.0675106048584, 0.8325401544570923, 
297, 528882005, -153.1685791015625, -77.04895782470703, -153.7016143798828, 9.957924842834473, -0.710220456123352, -1.492558240890503, 1.13437819480896, -27.59834098815918, 0.8651468753814697, 
298, 528890338, -153.6116485595703, -76.87345886230469, -153.27212524414062, 9.958497047424316, -0.711493968963623, -1.4566959142684937, 1.0973914861679077, -27.083677291870117, 0.9142751693725586, 
299, 528898671, -153.97854614257812, -76.68269348144531, -152.8924102783203, 9.952635765075684, -0.721765398979187, -1.490570068359375, 1.1258485317230225, -26.619184494018555, 1.0506196022033691, 
300, 528907004, -154.3755340576172, -76.51403045654297, -152.5090789794922, 9.964613914489746, -0.6942355036735535, -1.4542418718338013, 1.2217868566513062, -25.9808406829834, 1.0721226930618286, 
301, 528915337, -154.69830322265625, -76.33175659179688, -152.17335510253906, 9.969472885131836, -0.6957926750183105, -1.386660099029541, 1.234965443611145, -25.296749114990234, 1.1620672941207886, 
302, 528923670, -155.05152893066406, -76.17208862304688, -151.83546447753906, 9.980908393859863, -0.7021160125732422, -1.3663992881774902, 1.3351171016693115, -24.653751373291016, 1.203792929649353, 
303, 528932003, -155.3356475830078, -76.00074005126953, -151.5381317138672, 9.977362632751465, -0.6926208138465881, -1.3418387174606323, 1.3579905033111572, -23.752307891845703, 1.1406792402267456, 
304, 528940336, -155.64895629882812, -75.85379791259766, -151.23779296875, 9.976217269897461, -0.6862216591835022, -1.2970457077026367, 1.5680017471313477, -22.970256805419922, 1.1518726348876953, 
305, 528948669, -155.88851928710938, -75.69481658935547, -150.98370361328125, 9.985990524291992, -0.6920943856239319, -1.2842047214508057, 1.6394782066345215, -21.966751098632812, 1.3042900562286377, 
306, 528957002, -156.15577697753906, -75.56269836425781, -150.729736328125, 9.963866233825684, -0.6926634311676025, -1.2798670530319214, 1.6190890073776245, -20.93885040283203, 1.3401756286621094, 
307, 528965335, -156.35726928710938, -75.41889190673828, -150.51385498046875, 9.994653701782227, -0.6803725957870483, -1.2875205278396606, 1.7448934316635132, -19.907928466796875, 1.3174175024032593, 
308, 528973668, -156.5849609375, -75.3036880493164, -150.29942321777344, 9.970770835876465, -0.700066328048706, -1.215827226638794, 1.8505394458770752, -18.783002853393555, 1.3370252847671509, 
309, 528982001, -156.74819946289062, -75.17597198486328, -150.12171936035156, 9.966777801513672, -0.6817147731781006, -1.2260103225708008, 1.8780235052108765, -17.737117767333984, 1.4010605812072754, 
310, 528990334, -156.93666076660156, -75.07762145996094, -149.94723510742188, 9.944280624389648, -0.682179868221283, -1.199898362159729, 1.979135513305664, -16.59641456604004, 1.4505343437194824, 
311, 528998667, -157.06044006347656, -74.96768188476562, -149.8095245361328, 9.95518970489502, -0.6947290301322937, -1.1973366737365723, 1.972501277923584, -15.333028793334961, 1.5481245517730713, 
312, 529007000, -157.20713806152344, -74.8895492553711, -149.6773223876953, 9.980069160461426, -0.6843043565750122, -1.1828241348266602, 2.193514108657837, -14.007684707641602, 1.5585368871688843, 
313, 529015333, -157.29827880859375, -74.79825592041016, -149.57118225097656, 9.94234561920166, -0.6857417225837708, -1.1619378328323364, 2.2311153411865234, -12.91521167755127, 1.4925800561904907, 
314, 529023666, -157.40989685058594, -74.74019622802734, -149.4727325439453, 9.966754913330078, -0.7008491158485413, -1.1553993225097656, 2.430278778076172, -11.531440734863281, 1.549098014831543, 
315, 529031999, -157.46083068847656, -74.6698989868164, -149.4062957763672, 9.951726913452148, -0.7015233635902405, -1.1320245265960693, 2.4632184505462646, -10.12757396697998, 1.6253257989883423, 
316, 529040332, -157.53341674804688, -74.6343765258789, -149.34921264648438, 9.955004692077637, -0.6717485785484314, -1.1222931146621704, 2.513960599899292, -8.688490867614746, 1.6383122205734253, 
317, 529048665, -157.54959106445312, -74.5855712890625, -149.31700134277344, 9.944364547729492, -0.6846306920051575, -1.128942608833313, 2.684244155883789, -7.3475728034973145, 1.6258894205093384, 
318, 529056998, -157.58160400390625, -74.5727310180664, -149.297607421875, 9.941679954528809, -0.6907491683959961, -1.094714641571045, 2.9369797706604004, -5.839776992797852, 1.7212255001068115, 
319, 529065331, -157.55856323242188, -74.54649353027344, -149.30404663085938, 9.955541610717773, -0.7134119868278503, -1.093746542930603, 2.9223921298980713, -4.39181661605835, 1.7372726202011108, 
320, 529073664, -157.55638122558594, -74.55794525146484, -149.31930541992188, 9.924482345581055, -0.6933475136756897, -1.0995608568191528, 3.081418037414551, -2.8741605281829834, 1.6236863136291504, 
321, 529081997, -157.4960174560547, -74.55424499511719, -149.3631134033203, 9.936295509338379, -0.6851401329040527, -1.1112339496612549, 3.0940842628479004, -1.4414920806884766, 1.8111696243286133, 
322, 529090330, -157.45228576660156, -74.5880355834961, -149.4209442138672, 9.937332153320312, -0.6884232759475708, -1.0895812511444092, 3.2299418449401855, -0.022566135972738266, 1.8370141983032227, 
323, 529098663, -157.35415649414062, -74.60625457763672, -149.5009002685547, 9.93682861328125, -0.6625729203224182, -1.064092755317688, 3.455641746520996, 1.4239208698272705, 1.8624110221862793, 
324, 529106996, -157.272216796875, -74.66304016113281, -149.5938720703125, 9.944024085998535, -0.6907588243484497, -1.079037070274353, 3.5929477214813232, 2.8262364864349365, 1.8391919136047363, 
325, 529115329, -157.13990783691406, -74.70374298095703, -149.7082977294922, 9.9462890625, -0.6853027939796448, -1.0898443460464478, 3.5740697383880615, 4.325642108917236, 1.8072766065597534, 
326, 529123662, -157.0159912109375, -74.78456115722656, -149.84619140625, 9.955549240112305, -0.699990451335907, -1.0949227809906006, 3.692138671875, 5.867734909057617, 1.9186601638793945, 
327, 529131995, -156.84449768066406, -74.84622955322266, -149.99981689453125, 9.926525115966797, -0.7060094475746155, -1.112073302268982, 3.746222734451294, 7.110754489898682, 1.901715874671936, 
328, 529140328, -156.68280029296875, -74.94847106933594, -150.1743621826172, 9.967537879943848, -0.690740704536438, -1.1405818462371826, 3.8209402561187744, 8.548175811767578, 1.9174178838729858, 
329, 529148661, -156.46878051757812, -75.0321044921875, -150.369384765625, 9.958099365234375, -0.6902282238006592, -1.1798982620239258, 4.040504455566406, 10.010286331176758, 1.9389592409133911, 
330, 529156994, -156.26695251464844, -75.15573120117188, -150.58407592773438, 9.944156646728516, -0.6922783255577087, -1.1974127292633057, 4.119998931884766, 11.245368003845215, 1.8476060628890991, 
331, 529165327, -156.01573181152344, -75.25797271728516, -150.81700134277344, 9.958029747009277, -0.6728948950767517, -1.2109094858169556, 4.10545015335083, 12.493292808532715, 1.9329785108566284, 
332, 529173660, -155.7708740234375, -75.4001235961914, -151.0769805908203, 9.962491035461426, -0.6956158876419067, -1.2208423614501953, 4.1466755867004395, 13.6715087890625, 1.9631391763687134, 
333, 529181993, -155.47988891601562, -75.51935577392578, -151.349365234375, 9.951802253723145, -0.6867917776107788, -1.220189094543457, 4.270726203918457, 14.789546966552734, 1.9439542293548584, 
334, 529190326, -155.18991088867188, -75.6789321899414, -151.6538848876953, 9.947486877441406, -0.6641972064971924, -1.2488982677459717, 4.387604713439941, 15.974258422851562, 2.006120443344116, 
335, 529198659, -154.8564910888672, -75.8134536743164, -151.96827697753906, 9.96729564666748, -0.6724720001220703, -1.2635135650634766, 4.448463439941406, 16.913658142089844, 1.9837332963943481, 
336, 529206992, -154.5248565673828, -75.9888687133789, -152.31204223632812, 9.95497989654541, -0.6836010217666626, -1.2682791948318481, 4.614405632019043, 18.051176071166992, 1.8927130699157715, 
337, 529215325, -154.1495361328125, -76.13880920410156, -152.66749572753906, 9.975851058959961, -0.6882604956626892, -1.2932955026626587, 4.652493953704834, 19.010889053344727, 1.8519866466522217, 
338, 529223658, -153.771484375, -76.32804107666016, -153.0591583251953, 9.95424747467041, -0.7023236155509949, -1.330856442451477, 4.685639381408691, 19.946758270263672, 1.8938405513763428, 
339, 529231991, -153.346435546875, -76.49109649658203, -153.4641876220703, 9.947792053222656, -0.7067003846168518, -1.3086247444152832, 4.792771339416504, 20.940528869628906, 1.9005895853042603, 
340, 529240324, -152.9176025390625, -76.69303894042969, -153.90411376953125, 9.982664108276367, -0.7075507044792175, -1.348470687866211, 4.850274562835693, 21.761157989501953, 1.8650883436203003, 
341, 529248657, -152.44406127929688, -76.86717224121094, -154.35757446289062, 9.977998733520508, -0.6991891860961914, -1.3873333930969238, 4.885737895965576, 22.5975284576416, 1.8592870235443115, 
342, 529256990, -151.96502685546875, -77.07898712158203, -154.84991455078125, 9.972734451293945, -0.7144246697425842, -1.4214122295379639, 4.878157138824463, 23.235122680664062, 1.822504997253418, 
343, 529265323, -151.44273376464844, -77.25968170166016, -155.3523712158203, 9.958540916442871, -0.7345922589302063, -1.4531683921813965, 4.939784526824951, 23.750991821289062, 1.9060845375061035, 
344, 529273656, -150.91322326660156, -77.47804260253906, -155.8947296142578, 9.950701713562012, -0.7055448293685913, -1.4751713275909424, 4.867040157318115, 24.359661102294922, 1.7888476848602295, 
345, 529281989, -150.3389434814453, -77.66541290283203, -156.44900512695312, 9.976017951965332, -0.7350206971168518, -1.4801198244094849, 5.019368648529053, 24.909013748168945, 1.8489903211593628, 
346, 529290322, -149.7499542236328, -77.88794708251953, -157.05059814453125, 9.962471008300781, -0.715613603591919, -1.5041261911392212, 4.980435371398926, 25.29176902770996, 1.8979390859603882, 
347, 529298655, -149.12451171875, -78.0774917602539, -157.65647888183594, 9.93974781036377, -0.6933991312980652, -1.5126231908798218, 5.025771617889404, 25.579078674316406, 1.8693021535873413, 
348, 529306988, -148.47898864746094, -78.30201721191406, -158.31442260742188, 9.92660903930664, -0.7204015851020813, -1.5477041006088257, 5.088770389556885, 25.935468673706055, 1.8907030820846558, 
349, 529315321, -147.80247497558594, -78.49249267578125, -158.97149658203125, 9.939966201782227, -0.6909633278846741, -1.5561569929122925, 5.040487766265869, 26.068479537963867, 1.8085581064224243, 
350, 529323654, -147.10202026367188, -78.71629333496094, -159.6832275390625, 9.94637680053711, -0.685488224029541, -1.5657106637954712, 5.103997707366943, 26.27302360534668, 1.8678680658340454, 
351, 529331987, -146.37075805664062, -78.90536499023438, -160.3948211669922, 9.93662166595459, -0.6817399859428406, -1.6757038831710815, 5.084864616394043, 26.32430648803711, 1.8251692056655884, 
352, 529340320, -145.61648559570312, -79.12677001953125, -161.15830993652344, 9.91234016418457, -0.6433640122413635, -1.7228364944458008, 5.173490524291992, 26.404815673828125, 1.7762717008590698, 
353, 529348653, -144.8378448486328, -79.31131744384766, -161.91717529296875, 9.899507522583008, -0.663750410079956, -1.7380424737930298, 5.092663288116455, 26.163686752319336, 1.777718424797058, 
354, 529356986, -144.04112243652344, -79.525390625, -162.72512817382812, 9.878335952758789, -0.6696107387542725, -1.7591886520385742, 5.062567234039307, 25.91257095336914, 1.732048511505127, 
355, 529365319, -143.2247314453125, -79.70333099365234, -163.5218505859375, 9.858087539672852, -0.6569685339927673, -1.7576119899749756, 5.055561065673828, 25.663557052612305, 1.6362638473510742, 
356, 529373652, -142.38893127441406, -79.90864562988281, -164.36756896972656, 9.89052677154541, -0.6502474546432495, -1.7980881929397583, 4.968190670013428, 25.24973487854004, 1.6723288297653198, 
357, 529381985, -141.5418243408203, -80.07738494873047, -165.1944580078125, 9.832600593566895, -0.655471920967102, -1.796621561050415, 5.069034576416016, 24.80811882019043, 1.5325775146484375, 
358, 529390318, -140.6771240234375, -80.27265930175781, -166.06883239746094, 9.832283020019531, -0.6707813739776611, -1.8496779203414917, 4.941859245300293, 24.334840774536133, 1.524764895439148, 
359, 529398651, -139.80300903320312, -80.43110656738281, -166.92340087890625, 9.807988166809082, -0.6575465798377991, -1.826875925064087, 4.942859172821045, 23.839950561523438, 1.4809390306472778, 
360, 529406984, -138.91055297851562, -80.61474609375, -167.82566833496094, 9.792135238647461, -0.6774035692214966, -1.8578580617904663, 4.8399658203125, 23.286169052124023, 1.5231255292892456, 
361, 529415317, -138.02540588378906, -80.76005554199219, -168.69203186035156, 9.821052551269531, -0.6480598449707031, -1.866233468055725, 4.782128810882568, 22.423992156982422, 1.4684648513793945, 
362, 529423650, -137.128173828125, -80.93071746826172, -169.59814453125, 9.7810640335083, -0.6752186417579651, -1.8972108364105225, 4.67767333984375, 21.881864547729492, 1.3614484071731567, 
363, 529431983, -136.24700927734375, -81.06352233886719, -170.46109008789062, 9.77856731414795, -0.660780131816864, -1.9447745084762573, 4.630543231964111, 20.918720245361328, 1.301613450050354, 
364, 529440316, -135.3648223876953, -81.22000885009766, -171.3516082763672, 9.76242733001709, -0.6427019238471985, -1.9660279750823975, 4.583924770355225, 20.17039680480957, 1.1490548849105835, 
365, 529448649, -134.50404357910156, -81.33882141113281, -172.19386291503906, 9.723694801330566, -0.6524772047996521, -2.0093257427215576, 4.568939685821533, 19.120851516723633, 1.1732858419418335, 
366, 529456982, -133.6537628173828, -81.4795150756836, -173.052978515625, 9.745952606201172, -0.645636260509491, -1.9958059787750244, 4.4479899406433105, 18.161880493164062, 1.069958209991455, 
367, 529465315, -132.83665466308594, -81.58441162109375, -173.85289001464844, 9.713912010192871, -0.6465309858322144, -1.997556447982788, 4.294047832489014, 17.112205505371094, 0.9693964719772339, 
368, 529473648, -132.04885864257812, -81.70976257324219, -174.65025329589844, 9.718587875366211, -0.6382492780685425, -2.033045768737793, 4.18531608581543, 15.92626953125, 0.7905066609382629, 
369, 529481981, -131.29371643066406, -81.79936218261719, -175.38787841796875, 9.700276374816895, -0.6514087915420532, -2.006808042526245, 4.214746475219727, 14.82139778137207, 0.858973503112793, 
370, 529490314, -130.5694122314453, -81.9087905883789, -176.12295532226562, 9.679800033569336, -0.6536622047424316, -2.0637502670288086, 3.9774556159973145, 13.706254959106445, 0.8071814775466919, 
371, 529498647, -129.89602661132812, -81.9830322265625, -176.7799835205078, 9.66238021850586, -0.639563262462616, -2.1010568141937256, 3.9494335651397705, 12.364992141723633, 0.797038197517395, 
372, 529506980, -129.27099609375, -82.07707214355469, -177.4143524169922, 9.652729988098145, -0.6462522149085999, -2.0831689834594727, 3.9525327682495117, 11.15359115600586, 0.5969654321670532, 
373, 529515313, -128.69937133789062, -82.13770294189453, -177.97018432617188, 9.64924144744873, -0.6347271800041199, -2.1351191997528076, 3.746441125869751, 9.870061874389648, 0.5719915628433228, 
374, 529523646, -128.1868133544922, -82.2155532836914, -178.491943359375, 9.642273902893066, -0.6441025137901306, -2.126255750656128, 3.690166473388672, 8.498650550842285, 0.5832618474960327, 
375, 529531979, -127.73470306396484, -82.26031494140625, -178.9280242919922, 9.61148738861084, -0.6470059156417847, -2.1236748695373535, 3.6256189346313477, 7.042943000793457, 0.5870271325111389, 
376, 529540312, -127.35804748535156, -82.3218994140625, -179.31280517578125, 9.613574028015137, -0.6211851239204407, -2.1486575603485107, 3.530794143676758, 5.626473903656006, 0.5351582169532776, 
377, 529548645, -127.03996276855469, -82.35298919677734, -179.61618041992188, 9.605937957763672, -0.6472687125205994, -2.135612726211548, 3.3297483921051025, 4.287105560302734, 0.4346992075443268, 
378, 529556978, -126.8145523071289, -82.39958953857422, -179.8517303466797, 9.630014419555664, -0.6608008742332458, -2.147230386734009, 3.3063366413116455, 2.7115743160247803, 0.42114928364753723, 
379, 529565311, -126.6526107788086, -82.4158706665039, -179.9993896484375, 9.630653381347656, -0.6364426612854004, -2.1446564197540283, 3.1104133129119873, 1.2006160020828247, 0.3189740478992462, 
380, 529573644, -126.58687591552734, -82.44818115234375, 179.9237060546875, 9.60960578918457, -0.6514928340911865, -2.1448495388031006, 3.038104772567749, -0.16955344378948212, 0.24128611385822296, 
381, 529581977, -126.5665054321289, -82.45195007324219, 179.91726684570312, 9.606714248657227, -0.6372716426849365, -2.1223344802856445, 2.9279119968414307, -1.4938608407974243, 0.18483231961727142, 
382, 529590310, -126.65380096435547, -82.46980285644531, 179.99359130859375, 9.612525939941406, -0.6500572562217712, -2.1250927448272705, 2.8551418781280518, -2.9736204147338867, 0.21408377587795258, 
383, 529598643, -126.78824615478516, -82.45990753173828, -179.85861206054688, 9.611454963684082, -0.6492893099784851, -2.1193225383758545, 2.7187459468841553, -4.425947666168213, 0.053866732865571976, 
384, 529606976, -127.0359878540039, -82.46321105957031, -179.62059020996094, 9.610763549804688, -0.6388606429100037, -2.146415948867798, 2.704965829849243, -5.874432563781738, 0.1090397983789444, 
385, 529615309, -127.31707763671875, -82.43927001953125, -179.3263702392578, 9.630622863769531, -0.6405557990074158, -2.1076624393463135, 2.5458250045776367, -7.279093265533447, -0.02140069752931595, 
386, 529623642, -127.72515106201172, -82.42733764648438, -178.92921447753906, 9.627424240112305, -0.6512627601623535, -2.133571147918701, 2.4260525703430176, -8.795737266540527, -0.018634358420968056, 
387, 529631975, -128.14820861816406, -82.38789367675781, -178.493896484375, 9.624970436096191, -0.6467622518539429, -2.126866579055786, 2.298954963684082, -10.203291893005371, -0.013127296231687069, 
388, 529640308, -128.69796752929688, -82.36112976074219, -177.95660400390625, 9.655826568603516, -0.6341542601585388, -2.0945632457733154, 2.2330234050750732, -11.499730110168457, -0.14539921283721924, 
389, 529648641, -129.2495880126953, -82.30665588378906, -177.39370727539062, 9.652448654174805, -0.6574455499649048, -2.081846237182617, 2.0434787273406982, -12.975624084472656, -0.07844361662864685, 
390, 529656974, -129.93313598632812, -82.26371765136719, -176.72262573242188, 9.652657508850098, -0.6487634181976318, -2.10050630569458, 1.951728343963623, -14.261507987976074, -0.2502126693725586, 
391, 529665307, -130.59280395507812, -82.19367980957031, -176.05140686035156, 9.668725967407227, -0.6499702334403992, -2.0751187801361084, 1.9413288831710815, -15.599571228027344, -0.11309967935085297, 
392, 529673640, -131.37757873535156, -82.13331604003906, -175.2803497314453, 9.70234203338623, -0.6614213585853577, -2.039220094680786, 1.820250153541565, -16.774547576904297, -0.1730882078409195, 
393, 529681973, -132.11837768554688, -82.04912567138672, -174.52943420410156, 9.692543983459473, -0.6542460918426514, -2.0440642833709717, 1.6692800521850586, -17.834030151367188, -0.20280076563358307, 
394, 529690306, -132.98226928710938, -81.97358703613281, -173.67991638183594, 9.71288776397705, -0.642189621925354, -2.0113284587860107, 1.6036052703857422, -18.94755744934082, -0.2695258557796478, 
395, 529698639, -133.78517150878906, -81.87380981445312, -172.86766052246094, 9.74574089050293, -0.6508699655532837, -2.008889675140381, 1.4718968868255615, -20.040008544921875, -0.17547038197517395, 
396, 529706972, -134.70693969726562, -81.78164672851562, -171.9620361328125, 9.750391960144043, -0.6541318297386169, -1.9669488668441772, 1.4644174575805664, -21.05507469177246, -0.25741034746170044, 
397, 529715305, -135.55467224121094, -81.66678619384766, -171.10520935058594, 9.756553649902344, -0.6475180983543396, -1.9656161069869995, 1.350229263305664, -22.06619644165039, -0.24055615067481995, 
398, 529723638, -136.50990295410156, -81.55928802490234, -170.16671752929688, 9.770120620727539, -0.669037938117981, -1.9534913301467896, 1.238397479057312, -22.854398727416992, -0.270755410194397, 
399, 529731971, -137.384521484375, -81.43021392822266, -169.2827911376953, 9.791054725646973, -0.6738581657409668, -1.920068383216858, 1.2836451530456543, -23.891738891601562, -0.35590994358062744, 
400, 529740304, -138.35757446289062, -81.30706787109375, -168.32662963867188, 9.805480003356934, -0.6661437749862671, -1.8934173583984375, 1.1716214418411255, -24.570327758789062, -0.2960366904735565, 
401, 529748637, -139.22898864746094, -81.16422271728516, -167.4464874267578, 9.806979179382324, -0.6799752712249756, -1.878513216972351, 1.1573541164398193, -25.36277961730957, -0.2741365134716034, 
402, 529756970, -140.1938018798828, -81.02676391601562, -166.49876403808594, 9.80748176574707, -0.6667090058326721, -1.848962664604187, 1.0412706136703491, -25.942893981933594, -0.21547989547252655, 
403, 529765303, -141.04905700683594, -80.8720703125, -165.635498046875, 9.817828178405762, -0.6713475584983826, -1.8231087923049927, 1.0286298990249634, -26.548608779907227, -0.2755068838596344, 
404, 529773636, -141.9912109375, -80.72248077392578, -164.7107391357422, 9.837047576904297, -0.6397775411605835, -1.821962594985962, 1.1028728485107422, -27.03887939453125, -0.20469628274440765, 
405, 529781969, -142.8240203857422, -80.55685424804688, -163.8694305419922, 9.839811325073242, -0.6649856567382812, -1.780832290649414, 1.0511318445205688, -27.61650276184082, -0.34805917739868164, 
406, 529790302, -143.73866271972656, -80.39733123779297, -162.97283935546875, 9.853035926818848, -0.6592112183570862, -1.7930067777633667, 0.956000804901123, -27.87508201599121, -0.325236976146698, 
407, 529798635, -144.52618408203125, -80.22370910644531, -162.1773223876953, 9.879410743713379, -0.6681170463562012, -1.727787733078003, 0.9769787192344666, -28.160371780395508, -0.260970801115036, 
408, 529806968, -145.3929443359375, -80.05410766601562, -161.33053588867188, 9.886807441711426, -0.6719380021095276, -1.7128779888153076, 0.8999567031860352, -28.507110595703125, -0.1249847412109375, 
409, 529815301, -146.13636779785156, -79.87202453613281, -160.58038330078125, 9.907236099243164, -0.70334392786026, -1.722861647605896, 0.8199378252029419, -28.749013900756836, -0.12485665827989578, 
410, 529823634, -146.95529174804688, -79.6962661743164, -159.78236389160156, 9.937910079956055, -0.7157308459281921, -1.6664106845855713, 0.8591789603233337, -28.79276466369629, -0.1486523151397705, 
411, 529831967, -147.64468383789062, -79.51036834716797, -159.08660888671875, 9.963046073913574, -0.7074741721153259, -1.5910563468933105, 0.7879201173782349, -28.77565574645996, -0.06443266570568085, 
412, 529840300, -148.40115356445312, -79.33123779296875, -158.35092163085938, 9.97917652130127, -0.7116200923919678, -1.5556786060333252, 0.8942448496818542, -28.64115333557129, -0.0034451172687113285, 
413, 529848633, -149.02676391601562, -79.14358520507812, -157.71807861328125, 9.920422554016113, -0.6892203688621521, -1.5395703315734863, 0.9347409605979919, -28.47860336303711, 0.14523281157016754, 
414, 529856966, -149.71820068359375, -78.96366882324219, -157.04786682128906, 9.953184127807617, -0.6975839138031006, -1.5101876258850098, 0.8623293042182922, -28.18992805480957, 0.19072368741035461, 
415, 529865299, -150.28533935546875, -78.7789306640625, -156.47389221191406, 9.954787254333496, -0.7145347595214844, -1.4960469007492065, 0.9475480914115906, -27.705541610717773, 0.138188898563385, 
416, 529873632, -150.9174346923828, -78.60073852539062, -155.8636016845703, 9.960436820983887, -0.7052668929100037, -1.4997926950454712, 0.9836896061897278, -27.55331039428711, 0.26287904381752014, 
417, 529881965, -151.42681884765625, -78.41758728027344, -155.34681701660156, 9.961520195007324, -0.7267009615898132, -1.4576715230941772, 1.0692157745361328, -27.077760696411133, 0.3506847321987152, 
418, 529890298, -151.994384765625, -78.243896484375, -154.8022918701172, 9.957762718200684, -0.7350673079490662, -1.4559736251831055, 1.0409375429153442, -26.53232765197754, 0.45985257625579834, 
419, 529898631, -152.44573974609375, -78.06640625, -154.343505859375, 9.96213436126709, -0.7174458503723145, -1.4009950160980225, 1.167574405670166, -25.966461181640625, 0.5002463459968567, 
420, 529906964, -152.95840454101562, -77.89950561523438, -153.85353088378906, 9.964418411254883, -0.6947140097618103, -1.4189895391464233, 1.1825586557388306, -25.37248992919922, 0.4834689795970917, 
421, 529915297, -153.35716247558594, -77.73021697998047, -153.44740295410156, 9.96931266784668, -0.6939104795455933, -1.3722493648529053, 1.2316099405288696, -24.640382766723633, 0.5805469751358032, 
422, 529923630, -153.80596923828125, -77.57242584228516, -153.02133178710938, 9.95824909210205, -0.7067592144012451, -1.3010432720184326, 1.2971440553665161, -23.838850021362305, 0.7739472985267639, 
423, 529931963, -154.14840698242188, -77.41447448730469, -152.67153930664062, 9.969626426696777, -0.7090336680412292, -1.3255270719528198, 1.345388412475586, -22.884370803833008, 0.7348471283912659, 
424, 529940296, -154.54238891601562, -77.26820373535156, -152.2975616455078, 9.952527046203613, -0.6934835314750671, -1.2802999019622803, 1.466594934463501, -22.13630485534668, 0.8973694443702698, 
425, 529948629, -154.83236694335938, -77.12207794189453, -151.99954223632812, 9.950872421264648, -0.6885966658592224, -1.2962158918380737, 1.54215669631958, -21.107019424438477, 0.9215492010116577, 
426, 529956962, -155.1749267578125, -76.9913101196289, -151.6793975830078, 9.95691967010498, -0.685472309589386, -1.228459358215332, 1.58664870262146, -20.026945114135742, 0.9099204540252686, 
427, 529965295, -155.4180145263672, -76.860107421875, -151.42843627929688, 9.96338939666748, -0.6984596848487854, -1.2447713613510132, 1.6415143013000488, -19.021352767944336, 0.98653244972229, 
428, 529973628, -155.70697021484375, -76.7448501586914, -151.16049194335938, 9.953426361083984, -0.7080433368682861, -1.2348519563674927, 1.84983491897583, -17.871889114379883, 1.094496488571167, 
429, 529981961, -155.90415954589844, -76.62957763671875, -150.9551544189453, 9.959502220153809, -0.684963047504425, -1.2339054346084595, 1.8075073957443237, -16.804323196411133, 1.087875247001648, 
430, 529990294, -156.1446075439453, -76.53121185302734, -150.73397827148438, 9.965662956237793, -0.7043651938438416, -1.1988495588302612, 2.1514039039611816, -15.62540340423584, 1.2114895582199097, 
431, 529998627, -156.29251098632812, -76.43400573730469, -150.57643127441406, 9.953221321105957, -0.7005766034126282, -1.2012228965759277, 2.1283254623413086, -14.327783584594727, 1.264331579208374, 
432, 530006960, -156.48843383789062, -76.3540267944336, -150.4012451171875, 9.966506004333496, -0.7147825360298157, -1.1721349954605103, 2.272649049758911, -13.210710525512695, 1.2906757593154907, 
433, 530015293, -156.5918731689453, -76.27552032470703, -150.2881622314453, 9.971345901489258, -0.7183043956756592, -1.1552181243896484, 2.2797951698303223, -11.796059608459473, 1.4140338897705078, 
434, 530023626, -156.73826599121094, -76.21529388427734, -150.16172790527344, 9.953579902648926, -0.7234078049659729, -1.1396045684814453, 2.4237470626831055, -10.594035148620605, 1.530860424041748, 
435, 530031959, -156.79580688476562, -76.15636444091797, -150.0946807861328, 9.971344947814941, -0.6954190731048584, -1.1739543676376343, 2.432302474975586, -9.128005027770996, 1.632164716720581, 
436, 530040292, -156.8954620361328, -76.11753845214844, -150.01739501953125, 9.959418296813965, -0.7081359624862671, -1.0939573049545288, 2.6181845664978027, -7.825801849365234, 1.6792948246002197, 
437, 530048625, -156.90989685058594, -76.08030700683594, -149.99220275878906, 9.937840461730957, -0.7021023035049438, -1.130255937576294, 2.7333462238311768, -6.272631645202637, 1.6985310316085815, 
438, 530056958, -156.96376037597656, -76.0637435913086, -149.95835876464844, 9.945420265197754, -0.6937295794487, -1.1356682777404785, 2.9080357551574707, -4.96425724029541, 1.7865161895751953, 
439, 530065291, -156.9325408935547, -76.04667663574219, -149.9781494140625, 9.947125434875488, -0.6968563795089722, -1.1022690534591675, 2.983149290084839, -3.5401949882507324, 1.946028709411621, 
440, 530073624, -156.943359375, -76.05342102050781, -149.98660278320312, 9.943747520446777, -0.7198635339736938, -1.1021208763122559, 3.0808541774749756, -2.0128302574157715, 1.8208900690078735, 
441, 530081957, -156.87457275390625, -76.05872344970703, -150.04222106933594, 9.941433906555176, -0.7102106809616089, -1.0756185054779053, 3.328134298324585, -0.6688773036003113, 1.8504748344421387, 
442, 530090290, -156.8409881591797, -76.08782196044922, -150.09361267089844, 9.94145393371582, -0.7029042840003967, -1.0789207220077515, 3.397202968597412, 0.8458716869354248, 1.8967723846435547, 
443, 530098623, -156.72434997558594, -76.11544036865234, -150.1973419189453, 9.956944465637207, -0.6933680772781372, -1.1021623611450195, 3.472893714904785, 2.334263801574707, 2.0686442852020264, 
444, 530106956, -156.6448516845703, -76.16744995117188, -150.29537963867188, 9.943221092224121, -0.694089412689209, -1.1165318489074707, 3.5297698974609375, 3.7891910076141357, 2.00362229347229, 
445, 530115289, -156.4866943359375, -76.2160415649414, -150.4400177001953, 9.94183349609375, -0.7135304808616638, -1.1136678457260132, 3.6928040981292725, 5.103405475616455, 2.1114325523376465, 
446, 530123622, -156.35899353027344, -76.28874206542969, -150.58743286132812, 9.95776081085205, -0.6978895664215088, -1.1357847452163696, 3.7599141597747803, 6.4968976974487305, 2.204540967941284, 
447, 530131955, -156.1549072265625, -76.35679626464844, -150.77822875976562, 9.9453706741333, -0.7150734663009644, -1.1204020977020264, 3.8266003131866455, 7.762766361236572, 2.2963802814483643, 
448, 530140288, -155.9818572998047, -76.45042419433594, -150.96974182128906, 9.948898315429688, -0.6965602040290833, -1.1632137298583984, 3.9064784049987793, 9.195768356323242, 2.256844997406006, 
449, 530148621, -155.73248291015625, -76.53907012939453, -151.20529174804688, 9.95780086517334, -0.714405357837677, -1.189038872718811, 4.034946441650391, 10.51140308380127, 2.305370807647705, 
450, 530156954, -155.5118865966797, -76.65247344970703, -151.4445343017578, 9.938998222351074, -0.6758210062980652, -1.2071073055267334, 4.133613109588623, 11.792884826660156, 2.299940824508667, 
451, 530165287, -155.21759033203125, -76.75855255126953, -151.72360229492188, 9.955886840820312, -0.6948827505111694, -1.2414218187332153, 4.331778049468994, 12.884014129638672, 2.3279244899749756, 
452, 530173620, -154.94667053222656, -76.88835906982422, -152.0114288330078, 9.964927673339844, -0.6910848021507263, -1.2545469999313354, 4.294586181640625, 14.041213989257812, 2.4820713996887207, 
453, 530181953, -154.60047912597656, -77.01168060302734, -152.3426971435547, 9.955632209777832, -0.6714582443237305, -1.2373658418655396, 4.420915603637695, 15.304098129272461, 2.455970048904419, 
454, 530190286, -154.2794952392578, -77.15898132324219, -152.68153381347656, 9.939095497131348, -0.6667602062225342, -1.2485626935958862, 4.517942428588867, 16.37912940979004, 2.445289373397827, 
455, 530198619, -153.88548278808594, -77.29692077636719, -153.06072998046875, 9.968907356262207, -0.6869032382965088, -1.2853448390960693, 4.528598308563232, 17.3731689453125, 2.4572768211364746, 
456, 530206952, -153.51168823242188, -77.45758056640625, -153.45098876953125, 9.973306655883789, -0.7007514834403992, -1.3234853744506836, 4.642427921295166, 18.28572654724121, 2.5536632537841797, 
457, 530215285, -153.06373596191406, -77.60893249511719, -153.8839111328125, 9.96716022491455, -0.6858875155448914, -1.3225654363632202, 4.656951427459717, 19.344209671020508, 2.504176616668701, 
458, 530223618, -152.63619995117188, -77.78337860107422, -154.329833984375, 9.968608856201172, -0.6906106472015381, -1.2948142290115356, 4.760715007781982, 20.235050201416016, 2.481175184249878, 
459, 530231951, -152.1317138671875, -77.9464340209961, -154.8183135986328, 9.960163116455078, -0.7028536796569824, -1.3515032529830933, 4.8746724128723145, 21.130855560302734, 2.4982597827911377, 
460, 530240284, -151.64295959472656, -78.13127136230469, -155.32228088378906, 9.97415542602539, -0.6840205788612366, -1.358083724975586, 4.976438522338867, 21.85330581665039, 2.5647287368774414, 
461, 530248617, -151.0771484375, -78.30290985107422, -155.87277221679688, 9.960762977600098, -0.7005929946899414, -1.442976474761963, 4.892756938934326, 22.627063751220703, 2.6154966354370117, 
462, 530256950, -150.5291290283203, -78.49581146240234, -156.43545532226562, 9.947854042053223, -0.6777521371841431, -1.434896469116211, 4.984250545501709, 23.203025817871094, 2.5701589584350586, 
463, 530265283, -149.90451049804688, -78.6745834350586, -157.04383850097656, 9.948095321655273, -0.6994650363922119, -1.4565792083740234, 5.0476202964782715, 23.862619400024414, 2.5431361198425293, 
464, 530273616, -149.2906494140625, -78.87262725830078, -157.67152404785156, 9.959779739379883, -0.6898417472839355, -1.4853465557098389, 5.030125617980957, 24.29339599609375, 2.6761510372161865, 
465, 530281949, -148.60179138183594, -79.05406951904297, -158.3455352783203, 9.954113006591797, -0.6895884871482849, -1.4997469186782837, 4.948980331420898, 24.7082462310791, 2.6923394203186035, 
466, 530290282, -147.92210388183594, -79.25540924072266, -159.0419464111328, 9.923095703125, -0.6926021575927734, -1.474131464958191, 5.017524242401123, 25.166898727416992, 2.6918015480041504, 
467, 530298615, -147.1675262451172, -79.43873596191406, -159.7810516357422, 9.94731330871582, -0.6911954283714294, -1.5082900524139404, 5.078588008880615, 25.432106018066406, 2.6866018772125244, 
468, 530306948, -146.42547607421875, -79.64047241210938, -160.53749084472656, 9.927894592285156, -0.6773890256881714, -1.5506731271743774, 5.157710552215576, 25.648853302001953, 2.617699384689331, 
469, 530315281, -145.60877990722656, -79.82339477539062, -161.33837890625, 9.933686256408691, -0.7107185125350952, -1.5412170886993408, 5.129766464233398, 25.838708877563477, 2.6002564430236816, 
470, 530323614, -144.79441833496094, -80.02334594726562, -162.16769409179688, 9.97706127166748, -0.6870738863945007, -1.6220784187316895, 5.089269638061523, 26.020801544189453, 2.7277896404266357, 
471, 530331947, -143.9060516357422, -80.2036361694336, -163.04051208496094, 9.913993835449219, -0.6731315851211548, -1.694901704788208, 5.130380630493164, 26.122745513916016, 2.6679036617279053, 
472, 530340280, -143.033447265625, -80.39933776855469, -163.92796325683594, 9.8956880569458, -0.6707090735435486, -1.7365317344665527, 5.035813331604004, 25.990575790405273, 2.588934898376465, 
473, 530348613, -142.0957794189453, -80.57281494140625, -164.85006713867188, 9.878089904785156, -0.6772336363792419, -1.741304874420166, 5.097901821136475, 25.697032928466797, 2.542393445968628, 
474, 530356946, -141.16998291015625, -80.76124572753906, -165.7901611328125, 9.867084503173828, -0.6689457893371582, -1.7275363206863403, 5.074490547180176, 25.58274269104004, 2.486298084259033, 
475, 530365279, -140.18374633789062, -80.92693328857422, -166.7603759765625, 9.861039161682129, -0.6663159728050232, -1.7661538124084473, 5.133249282836914, 25.174863815307617, 2.400926113128662, 
476, 530373612, -139.22027587890625, -81.10554504394531, -167.73667907714844, 9.861743927001953, -0.6647602319717407, -1.7907055616378784, 5.008174896240234, 24.740264892578125, 2.3323309421539307, 
477, 530381945, -138.20132446289062, -81.26057434082031, -168.740966796875, 9.840269088745117, -0.6743000745773315, -1.8324881792068481, 4.912786960601807, 24.216991424560547, 2.2783102989196777, 
478, 530390278, -137.20077514648438, -81.42778778076172, -169.75486755371094, 9.832350730895996, -0.6513360142707825, -1.8584275245666504, 4.908919334411621, 23.810083389282227, 2.299596071243286, 
479, 530398611, -136.14862060546875, -81.57172393798828, -170.7920684814453, 9.802775382995605, -0.6499907970428467, -1.8453104496002197, 4.891860485076904, 23.22623062133789, 2.2160167694091797, 
480, 530406944, -135.13307189941406, -81.72576141357422, -171.82168579101562, 9.805695533752441, -0.6722673177719116, -1.870175838470459, 4.793578147888184, 22.49258804321289, 2.1805408000946045, 
481, 530415277, -134.07069396972656, -81.85714721679688, -172.87010192871094, 9.801413536071777, -0.6530723571777344, -1.898542881011963, 4.708743572235107, 21.899410247802734, 2.072089910507202, 
482, 530423610, -133.05722045898438, -81.99806213378906, -173.89736938476562, 9.792601585388184, -0.6541509032249451, -1.9459521770477295, 4.584231853485107, 21.029420852661133, 1.9971424341201782, 
483, 530431943, -132.0043487548828, -82.11494445800781, -174.93679809570312, 9.75036334991455, -0.6500046253204346, -1.9748210906982422, 4.563459396362305, 20.222726821899414, 2.001702070236206, 
484, 530440276, -131.00962829589844, -82.24197387695312, -175.94554138183594, 9.728263854980469, -0.6549572348594666, -1.9874883890151978, 4.466458320617676, 19.365339279174805, 1.8519610166549683, 
485, 530448609, -129.99563598632812, -82.34439849853516, -176.94656372070312, 9.731598854064941, -0.628746747970581, -1.9874250888824463, 4.410414218902588, 18.27081871032715, 1.8021924495697021, 
486, 530456942, -129.05384826660156, -82.45590209960938, -177.9027862548828, 9.738213539123535, -0.6463207602500916, -1.981420874595642, 4.3825578689575195, 17.25653076171875, 1.695444941520691, 
487, 530465275, -128.09500122070312, -82.5450210571289, -178.84861755371094, 9.684114456176758, -0.6512182354927063, -2.0044186115264893, 4.301193714141846, 16.277950286865234, 1.5746865272521973, 
488, 530473608, -127.21571350097656, -82.64254760742188, -179.74293518066406, 9.689888954162598, -0.6409738063812256, -2.0391957759857178, 4.145869731903076, 15.268852233886719, 1.5528889894485474, 
489, 530481941, -126.34078216552734, -82.7171630859375, 179.39450073242188, 9.672562599182129, -0.6519253849983215, -2.0361456871032715, 4.105859756469727, 13.958375930786133, 1.4173637628555298, 
490, 530490274, -125.56378173828125, -82.80004119873047, 178.60264587402344, 9.65487289428711, -0.6375043988227844, -2.057286262512207, 4.012112140655518, 12.806735038757324, 1.384833812713623, 
491, 530498607, -124.7879409790039, -82.86053466796875, 177.83831787109375, 9.65377140045166, -0.6408721804618835, -2.076882839202881, 3.8826825618743896, 11.568719863891602, 1.3623442649841309, 
492, 530506940, -124.13692474365234, -82.92911529541016, 177.17361450195312, 9.646089553833008, -0.6302652359008789, -2.1070058345794678, 3.809605598449707, 10.212089538574219, 1.2278953790664673, 
493, 530515273, -123.49632263183594, -82.97635650634766, 176.5432891845703, 9.628805160522461, -0.6487117409706116, -2.10373592376709, 3.598928213119507, 8.898155212402344, 1.1540493965148926, 
494, 530523606, -122.99372100830078, -83.03187561035156, 176.02557373046875, 9.629949569702148, -0.6418049931526184, -2.1088807582855225, 3.616499423980713, 7.52213191986084, 1.0024899244308472, 
495, 530531939, -122.49810791015625, -83.0668716430664, 175.5408172607422, 9.613195419311523, -0.639541506767273, -2.1370158195495605, 3.535353660583496, 6.22249174118042, 0.9797957539558411, 
496, 530540272, -122.15677642822266, -83.1103515625, 175.18338012695312, 9.635313034057617, -0.6404525637626648, -2.122624397277832, 3.3967032432556152, 4.813119411468506, 0.7884572744369507, 
497, 530548605, -121.82410430908203, -83.13401794433594, 174.86033630371094, 9.602497100830078, -0.6282800436019897, -2.142580509185791, 3.2402265071868896, 3.4688076972961426, 0.762202799320221, 
498, 530556938, -121.66632843017578, -83.16361999511719, 174.68638610839844, 9.614169120788574, -0.6260445713996887, -2.166374921798706, 3.1028313636779785, 1.8052911758422852, 0.7245754599571228, 
499, 530565271, -121.51104736328125, -83.17530822753906, 174.53968811035156, 9.61609935760498, -0.6357865929603577, -2.1381494998931885, 2.9737613201141357, 0.5464540719985962, 0.6164321303367615, 
500, 530573604, -121.54025268554688, -83.1940689086914, 174.5516815185547, 9.612349510192871, -0.636658251285553, -2.1365673542022705, 2.889157772064209, -1.0360318422317505, 0.43772169947624207, 
501, 530581937, -121.57012939453125, -83.1942138671875, 174.5896759033203, 9.603619575500488, -0.6296715140342712, -2.1304383277893066, 2.768232822418213, -2.4241695404052734, 0.4201502799987793, 
502, 530590270, -121.77799987792969, -83.20079040527344, 174.7795867919922, 9.608858108520508, -0.6406088471412659, -2.1405556201934814, 2.7186436653137207, -3.824781656265259, 0.35042834281921387, 
503, 530598603, -121.98554229736328, -83.18963623046875, 174.99461364746094, 9.609886169433594, -0.6368551850318909, -2.140253782272339, 2.5590157508850098, -5.269834518432617, 0.23470322787761688, 
504, 530606936, -122.37995910644531, -83.18385314941406, 175.37095642089844, 9.624897956848145, -0.63775634765625, -2.1322402954101562, 2.510733127593994, -6.717679500579834, 0.17253749072551727, 
505, 530615269, -122.753662109375, -83.16075134277344, 175.75189208984375, 9.640384674072266, -0.648392379283905, -2.1276588439941406, 2.3795878887176514, -8.046442985534668, 0.13683123886585236, 
506, 530623602, -123.3282470703125, -83.14130401611328, 176.3076934814453, 9.636544227600098, -0.6273234486579895, -2.1184639930725098, 2.2361996173858643, -9.618593215942383, 0.04613123834133148, 
507, 530631935, -123.86708068847656, -83.10559844970703, 176.8534393310547, 9.638957977294922, -0.6306959390640259, -2.1174216270446777, 2.208946466445923, -10.87131118774414, -0.04681002348661423, 
508, 530640268, -124.5945053100586, -83.07281494140625, 177.5592041015625, 9.647554397583008, -0.6494237780570984, -2.092238426208496, 1.9719375371932983, -12.220231056213379, -0.08374574780464172, 
509, 530648601, -125.2760238647461, -83.0245361328125, 178.24505615234375, 9.66342830657959, -0.6213206648826599, -2.0931363105773926, 1.7667419910430908, -13.460755348205566, -0.21530047059059143, 
510, 530656934, -126.13892364501953, -82.97675323486328, 179.08714294433594, 9.674270629882812, -0.632228672504425, -2.06240177154541, 1.9220415353775024, -14.817825317382812, -0.14209499955177307, 
511, 530665267, -126.94058227539062, -82.91374206542969, 179.89361572265625, 9.68289852142334, -0.6538224220275879, -2.0646936893463135, 1.711159348487854, -16.01984977722168, -0.26850125193595886, 
512, 530673600, -127.90676879882812, -82.85153198242188, -179.16281127929688, 9.707070350646973, -0.6440110802650452, -2.0164988040924072, 1.6064229011535645, -17.051006317138672, -0.22413744032382965, 
513, 530681933, -128.8050537109375, -82.77496337890625, -178.26083374023438, 9.69659423828125, -0.6389715671539307, -1.997064232826233, 1.4662872552871704, -18.288864135742188, -0.46096670627593994, 
514, 530690266, -129.86233520507812, -82.69679260253906, -177.22824096679688, 9.716700553894043, -0.6422954201698303, -2.020442485809326, 1.448408603668213, -19.362253189086914, -0.3420141637325287, 
515, 530698599, -130.8296661376953, -82.6053237915039, -176.2577667236328, 9.72379207611084, -0.6306989789009094, -1.985897421836853, 1.3062496185302734, -20.4302921295166, -0.5340697765350342, 
516, 530706932, -131.95005798339844, -82.5121078491211, -175.1610107421875, 9.751005172729492, -0.6355065107345581, -1.960129976272583, 1.2901639938354492, -21.386140823364258, -0.541702926158905, 
517, 530715265, -132.9629364013672, -82.4062728881836, -174.14508056640625, 9.75818157196045, -0.6495145559310913, -1.9509639739990234, 1.2047147750854492, -22.336835861206055, -0.6914181113243103, 
518, 530723598, -134.11492919921875, -82.29747772216797, -173.0203857421875, 9.76126480102539, -0.6447916626930237, -1.9131395816802979, 1.0294109582901, -23.160364151000977, -0.6276642680168152, 
519, 530731931, -135.14117431640625, -82.17672729492188, -171.9912109375, 9.791812896728516, -0.6559845805168152, -1.8865975141525269, 1.119598627090454, -24.00811767578125, -0.6681860685348511, 
520, 530740264, -136.2980194091797, -82.0526351928711, -170.8603515625, 9.813645362854004, -0.6708474159240723, -1.880357027053833, 1.100900411605835, -24.74148178100586, -0.6750251054763794, 
521, 530748597, -137.32086181640625, -81.91888427734375, -169.8362274169922, 9.826107025146484, -0.6618276834487915, -1.8253763914108276, 0.8574883341789246, -25.386425018310547, -0.7613195776939392, 
522, 530756930, -138.45765686035156, -81.78135681152344, -168.72645568847656, 9.823410034179688, -0.6496338248252869, -1.8441364765167236, 0.9867122173309326, -25.944063186645508, -0.7154316902160645, 
523, 530765263, -139.4573211669922, -81.63604736328125, -167.7257080078125, 9.855060577392578, -0.6716604232788086, -1.7968641519546509, 0.7808248400688171, -26.488428115844727, -0.8563997149467468, 
524, 530773596, -140.5688018798828, -81.48534393310547, -166.64254760742188, 9.838940620422363, -0.6536746025085449, -1.8061423301696777, 0.8369969725608826, -27.100788116455078, -0.8229730725288391, 
525, 530781929, -141.5303497314453, -81.32801055908203, -165.67996215820312, 9.860784530639648, -0.6529036164283752, -1.7799336910247803, 0.7609481811523438, -27.48307991027832, -0.806708037853241, 
526, 530790262, -142.58973693847656, -81.16680908203125, -164.65086364746094, 9.869921684265137, -0.6757296919822693, -1.7949827909469604, 0.7180442810058594, -27.786813735961914, -0.7973588705062866, 
527, 530798595, -143.50103759765625, -81.00106048583984, -163.7382354736328, 9.902868270874023, -0.6856910586357117, -1.7405377626419067, 0.7666345834732056, -28.054048538208008, -0.8509182929992676, 
528, 530806928, -144.50843811035156, -80.83087158203125, -162.76113891601562, 9.898037910461426, -0.6766478419303894, -1.7227016687393188, 0.7108467221260071, -28.3419246673584, -0.8920547366142273, 
529, 530815261, -145.3658447265625, -80.65723419189453, -161.90335083007812, 9.910042762756348, -0.7042315006256104, -1.6874256134033203, 0.6505507826805115, -28.52143096923828, -0.8244843482971191, 
530, 530823594, -146.298583984375, -80.48046112060547, -161.00233459472656, 9.932642936706543, -0.6960148215293884, -1.6408993005752563, 0.6515498161315918, -28.4502010345459, -0.7094764113426208, 
531, 530831927, -147.08590698242188, -80.30233001708984, -160.2142333984375, 9.962112426757812, -0.68897545337677, -1.549675464630127, 0.7238844037055969, -28.483060836791992, -0.6955934762954712, 
532, 530840260, -147.9469757080078, -80.12311553955078, -159.38613891601562, 9.946916580200195, -0.7013353109359741, -1.5221253633499146, 0.6804426908493042, -28.177242279052734, -0.727547287940979, 
533, 530848593, -148.66171264648438, -79.94470977783203, -158.67144775390625, 9.930390357971191, -0.6949443817138672, -1.5266062021255493, 0.6660474538803101, -27.959430694580078, -0.6220549941062927, 
534, 530856926, -149.44949340820312, -79.76422882080078, -157.91700744628906, 9.93780517578125, -0.702951967716217, -1.4888993501663208, 0.6718618273735046, -27.748828887939453, -0.6146267652511597, 
535, 530865259, -150.09764099121094, -79.58650207519531, -157.26785278320312, 9.954059600830078, -0.7146222591400146, -1.4871405363082886, 0.8363821506500244, -27.400909423828125, -0.5653961300849915, 
536, 530873592, -150.8069305419922, -79.40821838378906, -156.5913543701172, 9.961076736450195, -0.6948519349098206, -1.4663299322128296, 0.8898134827613831, -26.918312072753906, -0.45046502351760864, 
537, 530881925, -151.3859100341797, -79.23380279541016, -156.01234436035156, 9.934197425842285, -0.7080138325691223, -1.4417074918746948, 0.7914292216300964, -26.484203338623047, -0.3944210708141327, 
538, 530890258, -152.02537536621094, -79.06035614013672, -155.40447998046875, 9.941263198852539, -0.6970633268356323, -1.4476393461227417, 0.9187319278717041, -25.866718292236328, -0.36370953917503357, 
539, 530898591, -152.53746032714844, -78.89216613769531, -154.8924560546875, 9.95425796508789, -0.709925651550293, -1.3930120468139648, 0.860356867313385, -25.270055770874023, -0.2498541623353958, 
540, 530906924, -153.1044158935547, -78.72531127929688, -154.3585205078125, 9.948769569396973, -0.7069069147109985, -1.3934719562530518, 1.1144248247146606, -24.57929229736328, -0.14673122763633728, 
541, 530915257, -153.55467224121094, -78.56470489501953, -153.90721130371094, 9.963780403137207, -0.7003733515739441, -1.3571927547454834, 1.0728271007537842, -23.944032669067383, -0.11163970082998276, 
542, 530923590, -154.06121826171875, -78.40702819824219, -153.4344024658203, 9.972416877746582, -0.6948779821395874, -1.3413418531417847, 1.1126829385757446, -23.121559143066406, -0.07831557095050812, 
543, 530931923, -154.45236206054688, -78.25826263427734, -153.04273986816406, 9.963276863098145, -0.6970071196556091, -1.328939437866211, 1.1105568408966064, -22.142478942871094, -0.04045770317316055, 
544, 530940256, -154.8990020751953, -78.11286926269531, -152.62953186035156, 9.945258140563965, -0.690833568572998, -1.2832026481628418, 1.1720823049545288, -21.2984619140625, -0.005391798447817564, 
545, 530948589, -155.2333984375, -77.9765396118164, -152.29336547851562, 9.954601287841797, -0.6929644346237183, -1.2863125801086426, 1.3637022972106934, -20.29153823852539, 0.08918879181146622, 
546, 530956922, -155.61550903320312, -77.84477233886719, -151.94618225097656, 9.945621490478516, -0.7015911340713501, -1.2719011306762695, 1.4050179719924927, -19.28815269470215, 0.2557069659233093, 
547, 530965255, -155.89598083496094, -77.72303009033203, -151.6641845703125, 9.957447052001953, -0.694960355758667, -1.242300271987915, 1.459320068359375, -18.19021987915039, 0.24062015116214752, 
548, 530973588, -156.22459411621094, -77.60748291015625, -151.36956787109375, 9.954187393188477, -0.7065064311027527, -1.2039659023284912, 1.5550404787063599, -17.066268920898438, 0.3163870871067047, 
549, 530981921, -156.45494079589844, -77.50204467773438, -151.13705444335938, 9.953936576843262, -0.687506914138794, -1.2004563808441162, 1.6499155759811401, -15.938985824584961, 0.34666308760643005, 
550, 530990254, -156.7293243408203, -77.40387725830078, -150.89598083496094, 9.953998565673828, -0.6900845170021057, -1.1823586225509644, 1.7067279815673828, -14.713651657104492, 0.4893600642681122, 
551, 530998587, -156.90870666503906, -77.31578063964844, -150.71347045898438, 9.972921371459961, -0.7016981244087219, -1.2022744417190552, 1.9017035961151123, -13.538240432739258, 0.5324431657791138, 
552, 531006920, -157.12982177734375, -77.23788452148438, -150.52333068847656, 9.95872688293457, -0.7003824710845947, -1.1824309825897217, 2.0176846981048584, -12.033966064453125, 0.5929439663887024, 
553, 531015253, -157.25692749023438, -77.16925048828125, -150.39247131347656, 9.96156120300293, -0.7004238963127136, -1.1389912366867065, 2.125392436981201, -10.870797157287598, 0.7638933062553406, 
554, 531023586, -157.42758178710938, -77.10961151123047, -150.25303649902344, 9.951643943786621, -0.718979001045227, -1.1477506160736084, 2.2728023529052734, -9.604377746582031, 0.8373036980628967, 
555, 531031919, -157.5121307373047, -77.0601806640625, -150.1646270751953, 9.940794944763184, -0.705822229385376, -1.1257258653640747, 2.2718803882598877, -8.314828872680664, 0.8598698973655701, 
556, 531040252, -157.63449096679688, -77.02153015136719, -150.0737762451172, 9.94124984741211, -0.703761100769043, -1.1285401582717896, 2.364731788635254, -6.864628314971924, 1.0052562952041626, 
557, 531048585, -157.66943359375, -76.99394226074219, -150.0340576171875, 9.941304206848145, -0.7049180269241333, -1.1414438486099243, 2.5349385738372803, -5.404027462005615, 1.052181601524353, 
558, 531056918, -157.74388122558594, -76.977294921875, -149.98985290527344, 9.950592994689941, -0.7023872137069702, -1.135231852531433, 2.6566314697265625, -4.03054141998291, 1.1303049325942993, 
559, 531065251, -157.73565673828125, -76.96993255615234, -149.992431640625, 9.945728302001953, -0.7063653469085693, -1.1100826263427734, 2.784984588623047, -2.7170169353485107, 1.1798171997070312, 
560, 531073584, -157.7626495361328, -76.97525024414062, -149.99496459960938, 9.937044143676758, -0.7072114944458008, -1.0862644910812378, 2.9031174182891846, -1.1926885843276978, 1.2809935808181763, 
561, 531081917, -157.7045135498047, -76.99052429199219, -150.0462188720703, 9.946396827697754, -0.7129523158073425, -1.1357440948486328, 3.0870020389556885, 0.2914643883705139, 1.3721803426742554, 
562, 531090250, -157.6791229248047, -77.01803588867188, -150.1005096435547, 9.92825984954834, -0.7151769995689392, -1.120710849761963, 3.2460403442382812, 1.7030391693115234, 1.527248740196228, 
563, 531098583, -157.5751190185547, -77.05419158935547, -150.19677734375, 9.92992115020752, -0.707175076007843, -1.1045316457748413, 3.3378424644470215, 3.065768003463745, 1.531628966331482, 
564, 531106916, -157.50340270996094, -77.1029281616211, -150.296875, 9.917353630065918, -0.7016675472259521, -1.1134920120239258, 3.387892246246338, 4.4588236808776855, 1.6771175861358643, 
565, 531115249, -157.34933471679688, -77.15987396240234, -150.44285583496094, 9.957964897155762, -0.7062042355537415, -1.1324753761291504, 3.5303072929382324, 5.873011112213135, 1.767945647239685, 
566, 531123582, -157.22914123535156, -77.2293472290039, -150.5912322998047, 9.949206352233887, -0.7063857316970825, -1.1579779386520386, 3.5880417823791504, 7.155361652374268, 1.8393582105636597, 
567, 531131915, -157.027099609375, -77.30571746826172, -150.78492736816406, 9.920868873596191, -0.7039144039154053, -1.1897579431533813, 3.705483913421631, 8.502825736999512, 1.9485520124435425, 
568, 531140248, -156.85498046875, -77.39481353759766, -150.98291015625, 9.953962326049805, -0.7083218097686768, -1.165130376815796, 3.83925461769104, 9.767335891723633, 2.051175355911255, 
569, 531148581, -156.60142517089844, -77.49014282226562, -151.2270050048828, 9.960037231445312, -0.703453540802002, -1.2044140100479126, 3.9781601428985596, 11.095409393310547, 2.1206154823303223, 
570, 531156914, -156.3790740966797, -77.5994644165039, -151.47640991210938, 9.954567909240723, -0.6951133608818054, -1.2151801586151123, 3.93808650970459, 12.416654586791992, 2.117400884628296, 
571, 531165247, -156.07662963867188, -77.71127319335938, -151.76840209960938, 9.935750007629395, -0.6982904672622681, -1.26505446434021, 4.210033416748047, 13.35887622833252, 2.241809368133545, 
572, 531173580, -155.80126953125, -77.83661651611328, -152.0692901611328, 9.949570655822754, -0.6820589303970337, -1.2439720630645752, 4.286184310913086, 14.601807594299316, 2.2788476943969727, 
573, 531181913, -155.44728088378906, -77.96549987792969, -152.4130859375, 9.933191299438477, -0.6929426193237305, -1.2528049945831299, 4.303960800170898, 15.723737716674805, 2.285968780517578, 
574, 531190246, -155.11807250976562, -78.10652160644531, -152.76556396484375, 9.950021743774414, -0.6935664415359497, -1.2707641124725342, 4.3818278312683105, 16.764646530151367, 2.3856332302093506, 
575, 531198579, -154.70745849609375, -78.24931335449219, -153.1666717529297, 9.98095703125, -0.6830893158912659, -1.3135225772857666, 4.32703971862793, 17.763248443603516, 2.462066888809204, 
576, 531206912, -154.31982421875, -78.40431213378906, -153.5791473388672, 9.929003715515137, -0.6876994967460632, -1.2936558723449707, 4.377038478851318, 18.764711380004883, 2.5323519706726074, 
577, 531215245, -153.8466033935547, -78.55982208251953, -154.04124450683594, 9.950248718261719, -0.7017366886138916, -1.3122016191482544, 4.62647008895874, 19.690589904785156, 2.5987699031829834, 
578, 531223578, -153.39779663085938, -78.7262954711914, -154.51361083984375, 9.968700408935547, -0.6917908191680908, -1.3175429105758667, 4.704311847686768, 20.4832763671875, 2.618006467819214, 
579, 531231911, -152.86888122558594, -78.89260864257812, -155.03103637695312, 10.004241943359375, -0.6997861862182617, -1.3717949390411377, 4.745500087738037, 21.30390739440918, 2.530559539794922, 
580, 531240244, -152.35452270507812, -79.06915283203125, -155.5675811767578, 9.95118236541748, -0.7137121558189392, -1.4196094274520874, 4.820294380187988, 22.077306747436523, 2.716698408126831, 
581, 531248577, -151.75637817382812, -79.24262237548828, -156.15338134765625, 9.94777774810791, -0.7240703105926514, -1.4241820573806763, 4.930973052978516, 22.64655876159668, 2.7299411296844482, 
582, 531256910, -151.17222595214844, -79.42594146728516, -156.75950622558594, 9.959549903869629, -0.7007364630699158, -1.4542055130004883, 4.875722885131836, 23.338241577148438, 2.8813722133636475, 
583, 531265243, -150.50511169433594, -79.60491943359375, -157.4151153564453, 9.942477226257324, -0.6984745860099792, -1.477108359336853, 4.905000686645508, 23.798686981201172, 2.833268880844116, 
584, 531273576, -149.85377502441406, -79.79240417480469, -158.0891876220703, 9.940850257873535, -0.6891112327575684, -1.4750618934631348, 4.965219974517822, 24.27316665649414, 2.922201633453369, 
585, 531281909, -149.110107421875, -79.97491455078125, -158.82078552246094, 9.949337005615234, -0.7030395865440369, -1.5213654041290283, 5.026207447052002, 24.755273818969727, 2.967026472091675, 
586, 531290242, -148.38645935058594, -80.16484832763672, -159.56655883789062, 9.943419456481934, -0.689325749874115, -1.5166687965393066, 5.03886079788208, 25.042999267578125, 2.965182065963745, 
587, 531298575, -147.5725555419922, -80.34809875488281, -160.36929321289062, 9.952695846557617, -0.7030001282691956, -1.531552791595459, 4.956639289855957, 25.35157585144043, 2.962031841278076, 
588, 531306908, -146.7756805419922, -80.53800964355469, -161.186767578125, 9.919976234436035, -0.700907826423645, -1.5421571731567383, 5.069700241088867, 25.55692481994629, 2.9757869243621826, 
589, 531315241, -145.89076232910156, -80.71826934814453, -162.06036376953125, 9.994885444641113, -0.7140683531761169, -1.6057850122451782, 4.986248970031738, 25.526979446411133, 3.020380735397339, 
590, 531323574, -145.0131072998047, -80.90633392333984, -162.9608612060547, 9.9149751663208, -0.6909419894218445, -1.68755042552948, 4.9331512451171875, 25.95005226135254, 3.0666658878326416, 
591, 531331907, -144.04592895507812, -81.08319854736328, -163.9163055419922, 9.883855819702148, -0.6914424896240234, -1.728019118309021, 5.05837869644165, 25.753746032714844, 3.106701135635376, 
592, 531340240, -143.1072235107422, -81.26299285888672, -164.87655639648438, 9.961731910705566, -0.6715084910392761, -1.7425920963287354, 4.9340338706970215, 25.476608276367188, 3.1169590950012207, 
593, 531348573, -142.0761260986328, -81.43365478515625, -165.89744567871094, 9.767814636230469, -0.6564299464225769, -1.750421166419983, 4.874801158905029, 25.521394729614258, 2.999325752258301, 
594, 531356906, -141.08880615234375, -81.60431671142578, -166.90640258789062, 9.96246337890625, -0.6599644422531128, -1.7791848182678223, 4.962299823760986, 24.7891902923584, 2.9783995151519775, 
595, 531365239, -140.00238037109375, -81.7636947631836, -167.9818115234375, 9.822324752807617, -0.6811304688453674, -1.7865053415298462, 4.9343037605285645, 24.68196678161621, 3.0672550201416016, 
596, 531373572, -138.9485626220703, -81.92527770996094, -169.0582733154297, 9.800198554992676, -0.6552295088768005, -1.820564866065979, 4.831256866455078, 24.333789825439453, 3.068279504776001, 
597, 531381905, -137.81979370117188, -82.07244110107422, -170.17645263671875, 9.936807632446289, -0.6492902040481567, -1.8108656406402588, 4.837353706359863, 23.65888214111328, 3.0447657108306885, 
598, 531390238, -136.73370361328125, -82.22251892089844, -171.28616333007812, 9.727371215820312, -0.6510866284370422, -1.8171987533569336, 4.7560272216796875, 23.2923641204834, 2.9092659950256348, 
599, 531398571, -135.57908630371094, -82.35774230957031, -172.43032836914062, 9.899171829223633, -0.6745165586471558, -1.8349405527114868, 4.777595043182373, 22.52117347717285, 2.849687337875366, 
600, 531406904, -134.4785919189453, -82.49329376220703, -173.55186462402344, 9.748502731323242, -0.668779194355011, -1.8885166645050049, 4.701495170593262, 21.862092971801758, 2.8593695163726807, 
601, 531415237, -133.30442810058594, -82.6155776977539, -174.71621704101562, 9.773239135742188, -0.6578637361526489, -1.9035066366195679, 4.627085208892822, 21.272579193115234, 2.7919530868530273, 
602, 531423570, -132.21238708496094, -82.73721313476562, -175.82977294921875, 9.823225021362305, -0.6516180038452148, -1.9205024242401123, 4.555543899536133, 20.288145065307617, 2.681401252746582, 
603, 531431903, -131.06002807617188, -82.84484100341797, -176.9726104736328, 9.718564987182617, -0.6616129875183105, -1.9582452774047852, 4.509925842285156, 19.496231079101562, 2.596055030822754, 
604, 531440236, -129.9909210205078, -82.95098876953125, -178.06590270996094, 9.82262897491455, -0.653470516204834, -1.9715293645858765, 4.3778839111328125, 18.533031463623047, 2.683757781982422, 
605, 531448569, -128.87539672851562, -83.04246520996094, -179.1730499267578, 9.710832595825195, -0.6458746194839478, -1.9785956144332886, 4.291050910949707, 17.538198471069336, 2.6231799125671387, 
606, 531456902, -127.85729217529297, -83.13490295410156, 179.7854461669922, 9.722716331481934, -0.6411160826683044, -2.014035940170288, 4.188159465789795, 16.689346313476562, 2.5058412551879883, 
607, 531465235, -126.8080062866211, -83.2126235961914, 178.74441528320312, 9.704951286315918, -0.6364840865135193, -2.0143423080444336, 4.179935932159424, 15.516234397888184, 2.4064321517944336, 
