sep=,
PacketCounter,SampleTimeFine,Euler_X,Euler_Y,Euler_Z,Acc_X,Acc_Y,Acc_Z,Gyr_X,Gyr_Y,Gyr_Z,
0, 475497716, -151.88133239746094, -81.57552337646484, -164.82925415039062, 0, 0, 0, 0, 0, 0, 
1, 475506049, -152.02825927734375, -81.5254898071289, -164.6611328125, 9.91798210144043, -0.6752617955207825, -1.280804991722107, 2.3168718814849854, -6.698250770568848, 0.20953726768493652, 
2, 475514382, -152.0264434814453, -81.50592803955078, -164.621826171875, 9.911956787109375, -0.6906340718269348, -1.2162741422653198, 2.437284469604492, -5.616152286529541, 0.3620188236236572, 
3, 475522715, -152.11061096191406, -81.47051239013672, -164.51490783691406, 9.901803016662598, -0.7080410718917847, -1.2303962707519531, 2.587946653366089, -4.6440911293029785, 0.312608927488327, 
4, 475531048, -151.8846435546875, -81.5093765258789, -164.7119903564453, 9.903087615966797, -0.6905396580696106, -1.2193373441696167, 2.5734493732452393, -3.5883235931396484, 0.3358154296875, 
5, 475539381, -151.910888671875, -81.48977661132812, -164.6634063720703, 9.900593757629395, -0.6970136761665344, -1.2308454513549805, 2.6031877994537354, -2.494877815246582, 0.3553078770637512, 
6, 475547714, -151.6482696533203, -81.54606628417969, -164.9137420654297, 9.907332420349121, -0.6945495009422302, -1.2466171979904175, 2.7869694232940674, -1.3473856449127197, 0.35228538513183594, 
7, 475556047, -151.61009216308594, -81.5417251586914, -164.9280548095703, 9.923583030700684, -0.6866229176521301, -1.2513312101364136, 2.8812811374664307, -0.3422830402851105, 0.47272348403930664, 
8, 475564380, -151.36595153808594, -81.59591674804688, -165.15118408203125, 9.910959243774414, -0.6969798803329468, -1.2339061498641968, 2.9646553993225098, 0.8155187368392944, 0.6779959797859192, 
9, 475572713, -151.25955200195312, -81.60726165771484, -165.232666015625, 9.912698745727539, -0.7074829339981079, -1.2521114349365234, 3.095646619796753, 1.8808659315109253, 0.5976697206497192, 
10, 475581046, -150.9918975830078, -81.66280364990234, -165.49977111816406, 9.9128999710083, -0.7109248042106628, -1.2647672891616821, 3.114396572113037, 2.91383695602417, 0.6686980724334717, 
11, 475589379, -150.81654357910156, -81.68932342529297, -165.64952087402344, 9.902626037597656, -0.7015443444252014, -1.248110055923462, 3.262676954269409, 4.046677589416504, 0.7253567576408386, 
12, 475597712, -150.52027893066406, -81.7453842163086, -165.9498748779297, 9.895930290222168, -0.6867587566375732, -1.2526021003723145, 3.2439534664154053, 5.004419326782227, 0.835625946521759, 
13, 475606045, -150.2796630859375, -81.78507995605469, -166.164794921875, 9.911224365234375, -0.6961062550544739, -1.2718968391418457, 3.3543758392333984, 5.968308448791504, 0.85655277967453, 
14, 475614378, -149.97288513183594, -81.84656524658203, -166.472412109375, 9.928919792175293, -0.7052457928657532, -1.2510782480239868, 3.4433350563049316, 7.112370014190674, 0.8111645579338074, 
15, 475622711, -149.6584014892578, -81.90013122558594, -166.76071166992188, 9.911661148071289, -0.696500301361084, -1.2780004739761353, 3.487236976623535, 8.011350631713867, 0.9977640509605408, 
16, 475631044, -149.3136444091797, -81.96554565429688, -167.1016387939453, 9.927824020385742, -0.6930794715881348, -1.2600558996200562, 3.65670108795166, 8.922679901123047, 0.9886453747749329, 
17, 475639377, -148.92684936523438, -82.03316497802734, -167.46131896972656, 9.927374839782715, -0.6974111199378967, -1.297536015510559, 3.6739912033081055, 10.047223091125488, 0.9919754862785339, 
18, 475647710, -148.54812622070312, -82.10454559326172, -167.8337860107422, 9.898153305053711, -0.6849082112312317, -1.281839370727539, 3.764972686767578, 10.889930725097656, 1.0272973775863647, 
19, 475656043, -148.08639526367188, -82.18321990966797, -168.267578125, 9.931228637695312, -0.6892357468605042, -1.2891769409179688, 3.841303586959839, 11.765605926513672, 1.1000674962997437, 
20, 475664376, -147.6706085205078, -82.25914764404297, -168.67202758789062, 9.931546211242676, -0.7102788090705872, -1.3075379133224487, 3.9372544288635254, 12.598503112792969, 1.1433554887771606, 
21, 475672709, -147.13162231445312, -82.34624481201172, -169.1822967529297, 9.928525924682617, -0.709831178188324, -1.3526111841201782, 3.9870870113372803, 13.210749626159668, 1.2876535654067993, 
22, 475681042, -146.6712646484375, -82.4231948852539, -169.62770080566406, 9.93493366241455, -0.694553017616272, -1.3655318021774292, 4.094884395599365, 14.176138877868652, 1.279085636138916, 
23, 475689375, -146.04931640625, -82.51974487304688, -170.22068786621094, 9.90500545501709, -0.6922141909599304, -1.388468623161316, 4.090683460235596, 14.806093215942383, 1.3458360433578491, 
24, 475697708, -145.56439208984375, -82.59546661376953, -170.7018280029297, 9.919269561767578, -0.7047972679138184, -1.411708950996399, 4.152132034301758, 15.450726509094238, 1.4075920581817627, 
25, 475706041, -144.86502075195312, -82.6979751586914, -171.37107849121094, 9.905797958374023, -0.7112674713134766, -1.3851075172424316, 4.27754020690918, 15.970415115356445, 1.4228583574295044, 
26, 475714374, -144.34414672851562, -82.77151489257812, -171.88021850585938, 9.93012809753418, -0.7008143663406372, -1.4399957656860352, 4.312041759490967, 16.52898406982422, 1.5799248218536377, 
27, 475722707, -143.54966735839844, -82.87864685058594, -172.64480590820312, 9.921234130859375, -0.7137525081634521, -1.4536775350570679, 4.307432174682617, 17.136581420898438, 1.7001582384109497, 
28, 475731040, -143.00033569335938, -82.95040893554688, -173.19003295898438, 9.91402816772461, -0.71177077293396, -1.443041443824768, 4.312195777893066, 17.583932876586914, 1.6444214582443237, 
29, 475739373, -142.12646484375, -83.06090545654297, -174.033935546875, 9.896397590637207, -0.7046312093734741, -1.4541527032852173, 4.355023384094238, 18.02741813659668, 1.7315868139266968, 
30, 475747706, -141.540771484375, -83.13092803955078, -174.60202026367188, 9.899614334106445, -0.705342173576355, -1.4861032962799072, 4.4053802490234375, 18.476844787597656, 1.7334564924240112, 
31, 475756039, -140.5784454345703, -83.24300384521484, -175.5336456298828, 9.896851539611816, -0.7038363814353943, -1.4866085052490234, 4.47186279296875, 18.792964935302734, 1.867764949798584, 
32, 475764372, -139.9595947265625, -83.30863189697266, -176.13893127441406, 9.89046859741211, -0.698056161403656, -1.5454765558242798, 4.492546081542969, 19.0631046295166, 1.9739229679107666, 
33, 475772705, -138.9141082763672, -83.4200439453125, -177.15338134765625, 9.898655891418457, -0.6893444657325745, -1.5304783582687378, 4.532376289367676, 19.29973030090332, 2.0003316402435303, 
34, 475781038, -138.27972412109375, -83.48091888427734, -177.7695770263672, 9.887927055358887, -0.7161732316017151, -1.5533618927001953, 4.581197261810303, 19.48440933227539, 2.0683374404907227, 
35, 475789371, -137.15565490722656, -83.59036254882812, -178.86293029785156, 9.888471603393555, -0.7193137407302856, -1.5744014978408813, 4.522502422332764, 19.65921401977539, 2.0935544967651367, 
36, 475797704, -136.51048278808594, -83.64606475830078, -179.494140625, 9.89798641204834, -0.695719838142395, -1.6267011165618896, 4.5031633377075195, 19.725502014160156, 2.102417230606079, 
37, 475806037, -135.32969665527344, -83.75091552734375, 179.3563995361328, 9.884285926818848, -0.708070695400238, -1.6460539102554321, 4.596040725708008, 19.57847785949707, 2.124061107635498, 
38, 475814370, -134.70372009277344, -83.79812622070312, 178.74119567871094, 9.858047485351562, -0.6846044659614563, -1.7039166688919067, 4.50221586227417, 19.48201560974121, 2.2116363048553467, 
39, 475822703, -133.47952270507812, -83.89693450927734, 177.54823303222656, 9.843668937683105, -0.6827677488327026, -1.737187385559082, 4.576957702636719, 19.285064697265625, 2.156667947769165, 
40, 475831036, -132.89263916015625, -83.93595886230469, 176.98495483398438, 9.821050643920898, -0.6693776845932007, -1.747744083404541, 4.504533767700195, 19.176986694335938, 2.2282981872558594, 
41, 475839369, -131.6291961669922, -84.02735900878906, 175.75271606445312, 9.824440002441406, -0.6546155214309692, -1.7628573179244995, 4.5637664794921875, 18.86033058166504, 2.3124539852142334, 
42, 475847702, -131.1096954345703, -84.05624389648438, 175.2515869140625, 9.82100772857666, -0.687078058719635, -1.7613965272903442, 4.455084800720215, 18.377910614013672, 2.3284623622894287, 
43, 475856035, -129.84881591796875, -84.13933563232422, 174.0205535888672, 9.812553405761719, -0.6616542935371399, -1.7914289236068726, 4.358288764953613, 18.03086280822754, 2.2907071113586426, 
44, 475864368, -129.4053497314453, -84.15963745117188, 173.5971221923828, 9.79383373260498, -0.657710075378418, -1.8058092594146729, 4.347888946533203, 17.551286697387695, 2.304769515991211, 
45, 475872701, -128.15597534179688, -84.23448944091797, 172.37835693359375, 9.80703353881836, -0.6481174826622009, -1.802428960800171, 4.424886226654053, 17.1689453125, 2.2631208896636963, 
46, 475881034, -127.79945373535156, -84.24810028076172, 172.0413055419922, 9.7762451171875, -0.6545702219009399, -1.8041958808898926, 4.23126745223999, 16.676048278808594, 2.204335927963257, 
47, 475889367, -126.5879135131836, -84.31434631347656, 170.8590545654297, 9.783153533935547, -0.6581282019615173, -1.82062828540802, 4.228526592254639, 16.0928897857666, 2.2089977264404297, 
48, 475897700, -126.32837677001953, -84.31959533691406, 170.62435913085938, 9.778582572937012, -0.6492570042610168, -1.8556097745895386, 4.248147010803223, 15.522869110107422, 2.2292840480804443, 
49, 475906033, -125.17488098144531, -84.3763198852539, 169.5001983642578, 9.774900436401367, -0.6688392758369446, -1.8576316833496094, 4.17645263671875, 14.777750968933105, 2.2521321773529053, 
50, 475914366, -125.03388214111328, -84.37339782714844, 169.37945556640625, 9.760258674621582, -0.6669583320617676, -1.8841009140014648, 4.141157150268555, 14.170695304870605, 2.1941416263580322, 
51, 475922699, -123.96343994140625, -84.42163848876953, 168.33839416503906, 9.735884666442871, -0.6559597849845886, -1.85762619972229, 4.1425652503967285, 13.366381645202637, 2.132411003112793, 
52, 475931032, -123.96902465820312, -84.41092681884766, 168.36488342285156, 9.72640323638916, -0.6656192541122437, -1.9098153114318848, 4.010984897613525, 12.480562210083008, 2.0603325366973877, 
53, 475939365, -123.0072250366211, -84.44938659667969, 167.4315643310547, 9.707921981811523, -0.658081591129303, -1.9403023719787598, 3.964033842086792, 11.662009239196777, 2.1335127353668213, 
54, 475947698, -123.16278839111328, -84.42943572998047, 167.6098175048828, 9.682792663574219, -0.6585829854011536, -1.939491629600525, 3.933987855911255, 10.699732780456543, 2.050675630569458, 
55, 475956031, -122.32566833496094, -84.45946502685547, 166.80165100097656, 9.719757080078125, -0.6531608700752258, -1.958775520324707, 3.92684268951416, 9.879822731018066, 2.0636367797851562, 
56, 475964364, -122.62322235107422, -84.4311294555664, 167.12220764160156, 9.688852310180664, -0.6462514996528625, -1.9611260890960693, 3.7722854614257812, 8.994874000549316, 2.0583858489990234, 
57, 475972697, -121.92457580566406, -84.45263671875, 166.45130920410156, 9.701851844787598, -0.6410354971885681, -1.9444347620010376, 3.709761381149292, 8.01313304901123, 1.994862675666809, 
58, 475981030, -122.38656616210938, -84.41496276855469, 166.9379425048828, 9.699917793273926, -0.6413773894309998, -1.9929007291793823, 3.6657817363739014, 6.895174026489258, 2.044682264328003, 
59, 475989363, -121.83538818359375, -84.42729187011719, 166.4146270751953, 9.68838119506836, -0.6473522782325745, -2.0015194416046143, 3.650285005569458, 6.008485317230225, 2.0018036365509033, 
60, 475997696, -122.44417572021484, -84.3821792602539, 167.04769897460938, 9.663893699645996, -0.6550790071487427, -2.012085199356079, 3.4404139518737793, 5.03869104385376, 1.9222586154937744, 
61, 476006029, -122.060302734375, -84.38682556152344, 166.6893768310547, 9.681550025939941, -0.6618896126747131, -1.9854191541671753, 3.281670331954956, 3.9180049896240234, 1.7773205041885376, 
62, 476014362, -122.83647155761719, -84.33164978027344, 167.48849487304688, 9.68812370300293, -0.649871289730072, -2.000455379486084, 3.2125120162963867, 2.7161080837249756, 1.8105167150497437, 
63, 476022695, -122.60393524169922, -84.32715606689453, 167.28147888183594, 9.669812202453613, -0.6454050540924072, -1.9917503595352173, 3.1853606700897217, 1.8346964120864868, 1.7973765134811401, 
64, 476031028, -123.50494384765625, -84.2625732421875, 168.2098388671875, 9.687352180480957, -0.6435994505882263, -1.9975539445877075, 3.13789701461792, 0.7379972338676453, 1.7612088918685913, 
65, 476039361, -123.44647979736328, -84.24885559082031, 168.17601013183594, 9.658794403076172, -0.6407248973846436, -1.986965537071228, 2.9865174293518066, -0.49316373467445374, 1.6048343181610107, 
66, 476047694, -124.48345184326172, -84.17388916015625, 169.2383575439453, 9.670380592346191, -0.6541885137557983, -2.019594192504883, 2.8995821475982666, -1.5412211418151855, 1.6091628074645996, 
67, 476056027, -124.5688247680664, -84.1500473022461, 169.3482666015625, 9.669547080993652, -0.6467239856719971, -1.9804139137268066, 2.8849825859069824, -2.6393423080444336, 1.599865198135376, 
68, 476064360, -124.72765350341797, -84.12173461914062, 169.53192138671875, 9.659361839294434, -0.6429599523544312, -2.004020929336548, 2.873814821243286, -3.719187021255493, 1.5168237686157227, 
69, 476072693, -125.93649291992188, -84.02975463867188, 170.7644500732422, 9.676338195800781, -0.6530113220214844, -1.9915406703948975, 2.7018916606903076, -4.798070907592773, 1.5005073547363281, 
70, 476081026, -127.17599487304688, -83.9306640625, 172.03646850585938, 9.677602767944336, -0.6307551264762878, -1.9663995504379272, 2.6474361419677734, -5.9844207763671875, 1.4065800905227661, 
71, 476089359, -127.52581024169922, -83.88695526123047, 172.41001892089844, 9.688257217407227, -0.6491045951843262, -1.995556354522705, 2.5978472232818604, -6.862605094909668, 1.2938520908355713, 
72, 476097692, -128.820068359375, -83.77635192871094, 173.7360076904297, 9.695670127868652, -0.637387752532959, -1.9665635824203491, 2.459043264389038, -7.895651817321777, 1.2740519046783447, 
73, 476106025, -129.28134155273438, -83.72008514404297, 174.2196044921875, 9.685535430908203, -0.6313405632972717, -1.9961260557174683, 2.341231107711792, -9.051483154296875, 1.2760118246078491, 
74, 476114358, -130.62075805664062, -83.59577941894531, 175.59169006347656, 9.705415725708008, -0.6540325284004211, -1.956850290298462, 2.220421314239502, -9.988885879516602, 1.1981827020645142, 
75, 476122691, -131.1676025390625, -83.52825927734375, 176.16075134277344, 9.689868927001953, -0.6313241124153137, -1.9493862390518188, 2.2366480827331543, -10.97324275970459, 1.1273466348648071, 
76, 476131024, -132.52496337890625, -83.38998413085938, 177.552001953125, 9.709742546081543, -0.6271962523460388, -1.9343223571777344, 2.120013475418091, -11.962987899780273, 1.1317137479782104, 
77, 476139357, -133.1451873779297, -83.30933380126953, 178.1937713623047, 9.723146438598633, -0.6456327438354492, -1.9388166666030884, 2.0774941444396973, -12.983153343200684, 1.0415260791778564, 
78, 476147690, -134.50079345703125, -83.1577377319336, 179.58192443847656, 9.714448928833008, -0.6469641327857971, -1.9432919025421143, 1.9934797286987305, -13.806499481201172, 1.0032331943511963, 
79, 476156023, -135.16229248046875, -83.06500244140625, -179.7359161376953, 9.719839096069336, -0.6509450674057007, -1.9200513362884521, 1.8986555337905884, -14.663832664489746, 0.9818450212478638, 
80, 476164356, -136.4929656982422, -82.9004135131836, -178.37245178222656, 9.729836463928223, -0.6499578356742859, -1.9107459783554077, 1.9474506378173828, -15.477544784545898, 0.9028506875038147, 
81, 476172689, -137.18426513671875, -82.79573822021484, -177.66078186035156, 9.7369384765625, -0.6408894658088684, -1.8887181282043457, 1.7884888648986816, -16.28060531616211, 0.8522114753723145, 
82, 476181022, -138.47576904296875, -82.61924743652344, -176.33758544921875, 9.764965057373047, -0.6603044867515564, -1.8851733207702637, 1.6763238906860352, -16.955204010009766, 0.7629969716072083, 
83, 476189355, -139.1753692626953, -82.50365447998047, -175.6181182861328, 9.78809928894043, -0.6565624475479126, -1.8601324558258057, 1.658445119857788, -17.63895034790039, 0.7414553761482239, 
84, 476197688, -140.40985107421875, -82.31558990478516, -174.3516845703125, 9.755266189575195, -0.6727009415626526, -1.8554176092147827, 1.6405154466629028, -18.304489135742188, 0.7245756983757019, 
85, 476206021, -141.10801696777344, -82.1894302368164, -173.63417053222656, 9.76701545715332, -0.6707422137260437, -1.7981427907943726, 1.532807469367981, -18.899147033691406, 0.6115400195121765, 
86, 476214354, -142.27955627441406, -81.99170684814453, -172.4261932373047, 9.77652359008789, -0.6527881622314453, -1.7573331594467163, 1.5665158033370972, -19.466503143310547, 0.5991939902305603, 
87, 476222687, -142.95675659179688, -81.85623168945312, -171.72982788085938, 9.793974876403809, -0.6659888625144958, -1.7978976964950562, 1.468003511428833, -19.857711791992188, 0.5627192854881287, 
88, 476231020, -144.05667114257812, -81.65084838867188, -170.59454345703125, 9.81794261932373, -0.6512616872787476, -1.7871004343032837, 1.4760719537734985, -20.365589141845703, 0.4877207577228546, 
89, 476239353, -144.71511840820312, -81.5071792602539, -169.9169464111328, 9.794961929321289, -0.6697912812232971, -1.7650355100631714, 1.4201818704605103, -20.758615493774414, 0.38552001118659973, 
90, 476247686, -145.74147033691406, -81.29475402832031, -168.85870361328125, 9.81527328491211, -0.6715161204338074, -1.7200801372528076, 1.4256376028060913, -21.183069229125977, 0.4431520700454712, 
91, 476256019, -146.3689422607422, -81.14286041259766, -168.21334838867188, 9.831775665283203, -0.6615793704986572, -1.744387149810791, 1.2409077882766724, -21.514802932739258, 0.39269202947616577, 
92, 476264352, -147.32130432128906, -80.92535400390625, -167.2256622314453, 9.830467224121094, -0.6612116098403931, -1.7458971738815308, 1.3462847471237183, -21.790971755981445, 0.37371182441711426, 
93, 476272685, -147.9199676513672, -80.76753997802734, -166.60888671875, 9.851263046264648, -0.6798469424247742, -1.7569328546524048, 1.2276651859283447, -22.08620262145996, 0.22760818898677826, 
94, 476281018, -148.79835510253906, -80.54838562011719, -165.69300842285156, 9.843981742858887, -0.675806999206543, -1.6877012252807617, 1.2672392129898071, -21.997703552246094, 0.21349471807479858, 
95, 476289351, -149.3505859375, -80.38726043701172, -165.12283325195312, 9.877655982971191, -0.6754842400550842, -1.6832908391952515, 1.2034598588943481, -22.189199447631836, 0.2500206530094147, 
96, 476297684, -150.1507110595703, -80.16556549072266, -164.28460693359375, 9.910012245178223, -0.6923123002052307, -1.5738012790679932, 1.279252290725708, -22.26573371887207, 0.3499930500984192, 
97, 476306017, -150.65615844726562, -80.00273132324219, -163.76133728027344, 9.889657020568848, -0.7147167921066284, -1.5262104272842407, 1.1988489627838135, -22.092348098754883, 0.2795538604259491, 
98, 476314350, -151.37425231933594, -79.78536987304688, -163.00912475585938, 9.88242244720459, -0.708702564239502, -1.5323787927627563, 1.3001279830932617, -21.7882080078125, 0.33290839195251465, 
99, 476322683, -151.830810546875, -79.62369537353516, -162.5338134765625, 9.887405395507812, -0.6990957260131836, -1.4959262609481812, 1.3204141855239868, -21.67089080810547, 0.29456377029418945, 
100, 476331016, -152.47976684570312, -79.40972137451172, -161.84756469726562, 9.903820037841797, -0.7092559933662415, -1.4856071472167969, 1.3109241724014282, -21.479082107543945, 0.34429389238357544, 
101, 476339349, -152.8927459716797, -79.25118255615234, -161.41578674316406, 9.8928861618042, -0.7008568048477173, -1.4433143138885498, 1.352226972579956, -21.050386428833008, 0.24113249778747559, 
102, 476347682, -153.47438049316406, -79.04496002197266, -160.80531311035156, 9.89404582977295, -0.7142664790153503, -1.5072834491729736, 1.3737430572509766, -20.7116641998291, 0.27929770946502686, 
103, 476356015, -153.83990478515625, -78.88996887207031, -160.42115783691406, 9.898242950439453, -0.7059155702590942, -1.4583796262741089, 1.3791476488113403, -20.31392478942871, 0.38311219215393066, 
104, 476364348, -154.35723876953125, -78.69097900390625, -159.86167907714844, 9.890049934387207, -0.7057623267173767, -1.430367112159729, 1.3683127164840698, -19.941390991210938, 0.38741543889045715, 
105, 476372681, -154.68421936035156, -78.54158782958984, -159.5164794921875, 9.896814346313477, -0.709624707698822, -1.4418151378631592, 1.3569914102554321, -19.4234619140625, 0.37012583017349243, 
106, 476381014, -155.142578125, -78.35218048095703, -159.02316284179688, 9.907562255859375, -0.7032982707023621, -1.429352045059204, 1.5420669317245483, -18.959789276123047, 0.41952285170555115, 
107, 476389347, -155.42462158203125, -78.21031951904297, -158.7215576171875, 9.903837203979492, -0.6989904046058655, -1.4233907461166382, 1.5750194787979126, -18.259891510009766, 0.4861070215702057, 
108, 476397680, -155.83062744140625, -78.0331039428711, -158.27957153320312, 9.922209739685059, -0.7040888667106628, -1.4142000675201416, 1.4949238300323486, -17.6893367767334, 0.39041224122047424, 
109, 476406013, -156.07566833496094, -77.90087890625, -158.01539611816406, 9.915853500366211, -0.6939165592193604, -1.3643006086349487, 1.5813206434249878, -16.899211883544922, 0.47716763615608215, 
110, 476414346, -156.42799377441406, -77.73587036132812, -157.62306213378906, 9.926048278808594, -0.6768847107887268, -1.3525211811065674, 1.7273989915847778, -16.385135650634766, 0.4980689287185669, 
111, 476422679, -156.6371612548828, -77.61407470703125, -157.39376831054688, 9.910847663879395, -0.688846230506897, -1.3049812316894531, 1.752103567123413, -15.454377174377441, 0.4828668534755707, 
112, 476431012, -156.9386749267578, -77.46516418457031, -157.05758666992188, 9.907814025878906, -0.7006345987319946, -1.3205186128616333, 1.7386815547943115, -14.652239799499512, 0.5563540458679199, 
113, 476439345, -157.11109924316406, -77.35543060302734, -156.86538696289062, 9.91346263885498, -0.6867806911468506, -1.2957338094711304, 1.7974411249160767, -13.780360221862793, 0.5583776831626892, 
114, 476447678, -157.3690948486328, -77.22343444824219, -156.5724639892578, 9.921977996826172, -0.7106510400772095, -1.2900794744491577, 1.8510899543762207, -12.860615730285645, 0.5065984725952148, 
115, 476456011, -157.50558471679688, -77.128173828125, -156.41580200195312, 9.909772872924805, -0.6825811266899109, -1.2779325246810913, 1.929904818534851, -11.844267845153809, 0.5830056667327881, 
116, 476464344, -157.71986389160156, -77.01324462890625, -156.16635131835938, 9.909286499023438, -0.6929317116737366, -1.2935166358947754, 2.0597691535949707, -11.029631614685059, 0.550654947757721, 
117, 476472677, -157.82591247558594, -76.93199920654297, -156.0394744873047, 9.908522605895996, -0.6915818452835083, -1.2593992948532104, 2.0854344367980957, -10.009480476379395, 0.5648963451385498, 
118, 476481010, -157.99700927734375, -76.83483123779297, -155.82965087890625, 9.917744636535645, -0.689404308795929, -1.2734529972076416, 2.2016334533691406, -9.076481819152832, 0.6620127558708191, 
119, 476489343, -158.07029724121094, -76.76807403564453, -155.73471069335938, 9.923866271972656, -0.6883044242858887, -1.2712992429733276, 2.2675387859344482, -8.08375072479248, 0.6415213346481323, 
120, 476497676, -158.2034454345703, -76.68994903564453, -155.56568908691406, 9.911264419555664, -0.6829630136489868, -1.2286888360977173, 2.3773341178894043, -6.99556827545166, 0.6488598585128784, 
121, 476506009, -158.2466278076172, -76.63897705078125, -155.5010223388672, 9.913485527038574, -0.6865538358688354, -1.2447704076766968, 2.3419735431671143, -6.01734733581543, 0.6643692255020142, 
122, 476514342, -158.3413848876953, -76.58009338378906, -155.37042236328125, 9.912603378295898, -0.6876928806304932, -1.2469197511672974, 2.4727981090545654, -4.8802666664123535, 0.7253438234329224, 
123, 476522675, -158.35208129882812, -76.54545593261719, -155.33773803710938, 9.91018009185791, -0.6976048946380615, -1.2381417751312256, 2.5034584999084473, -3.8696577548980713, 0.7467318177223206, 
124, 476531008, -158.4161376953125, -76.50564575195312, -155.23788452148438, 9.905552864074707, -0.6911224126815796, -1.1990560293197632, 2.665019989013672, -2.8165924549102783, 0.6203383207321167, 
125, 476539341, -158.39825439453125, -76.48782348632812, -155.23251342773438, 9.898344039916992, -0.6909530162811279, -1.2421276569366455, 2.737124443054199, -1.7158209085464478, 0.7120373845100403, 
126, 476547674, -158.42498779296875, -76.46709442138672, -155.1699981689453, 9.905211448669434, -0.703324019908905, -1.2430561780929565, 2.6998555660247803, -0.6580039858818054, 0.7556326985359192, 
127, 476556007, -158.37583923339844, -76.46617126464844, -155.19578552246094, 9.912324905395508, -0.7003596425056458, -1.2488807439804077, 2.8551034927368164, 0.5025128722190857, 0.7781988978385925, 
128, 476564340, -158.3690643310547, -76.46490478515625, -155.1665496826172, 9.901082038879395, -0.6760058999061584, -1.2171624898910522, 2.955472946166992, 1.5107275247573853, 0.7335660457611084, 
129, 476572673, -158.2924041748047, -76.47965240478516, -155.21859741210938, 9.91869831085205, -0.6956034898757935, -1.2336291074752808, 3.088423013687134, 2.5225791931152344, 0.77169269323349, 
130, 476581006, -158.24610900878906, -76.49689483642578, -155.22789001464844, 9.907516479492188, -0.6946839094161987, -1.2508434057235718, 3.085580587387085, 3.6820850372314453, 0.9389026761054993, 
131, 476589339, -158.13865661621094, -76.52755737304688, -155.31065368652344, 9.908928871154785, -0.7075065970420837, -1.2729718685150146, 3.1962854862213135, 4.613546371459961, 0.8530437350273132, 
132, 476597672, -158.06129455566406, -76.5612564086914, -155.35182189941406, 9.908626556396484, -0.6781063675880432, -1.2633841037750244, 3.364083766937256, 5.526924133300781, 0.9585486650466919, 
133, 476606005, -157.91876220703125, -76.60746765136719, -155.46868896484375, 9.917370796203613, -0.67409348487854, -1.244144320487976, 3.417208194732666, 6.699109077453613, 1.0122106075286865, 
134, 476614338, -157.80552673339844, -76.6587905883789, -155.5447540283203, 9.90865707397461, -0.6811344027519226, -1.2564539909362793, 3.4448325634002686, 7.604123115539551, 1.0656545162200928, 
135, 476622671, -157.6377410888672, -76.71990966796875, -155.6867218017578, 9.924795150756836, -0.702728271484375, -1.2918041944503784, 3.506896734237671, 8.604872703552246, 0.9285674095153809, 
136, 476631004, -157.49488830566406, -76.78855895996094, -155.79251098632812, 9.887712478637695, -0.6994072794914246, -1.2919672727584839, 3.577885866165161, 9.59405517578125, 0.9588049054145813, 
137, 476639337, -157.29344177246094, -76.8624038696289, -155.96792602539062, 9.911370277404785, -0.705676257610321, -1.2775285243988037, 3.6351726055145264, 10.3701810836792, 1.098825216293335, 
138, 476647670, -157.11224365234375, -76.94583892822266, -156.11187744140625, 9.91474437713623, -0.6932092905044556, -1.2899699211120605, 3.8081588745117188, 11.376142501831055, 1.1219933032989502, 
139, 476656003, -156.87997436523438, -77.03323364257812, -156.31692504882812, 9.901165008544922, -0.6944538950920105, -1.320124626159668, 3.8487441539764404, 12.151958465576172, 1.0848143100738525, 
140, 476664336, -156.6322784423828, -77.12620544433594, -156.53768920898438, 9.939290046691895, -0.7102281451225281, -1.3289645910263062, 3.8622426986694336, 12.9284029006958, 1.111632227897644, 
141, 476672669, -156.40054321289062, -77.22808074951172, -156.7331085205078, 9.94286823272705, -0.713154137134552, -1.3462483882904053, 3.9462318420410156, 13.72618293762207, 1.2698001861572266, 
142, 476681002, -156.1464080810547, -77.33757781982422, -156.9496307373047, 9.916863441467285, -0.7230409979820251, -1.3903707265853882, 4.036957740783691, 14.61617660522461, 1.3346811532974243, 
143, 476689335, -155.845947265625, -77.4468002319336, -157.2230987548828, 9.919432640075684, -0.7187044024467468, -1.4019283056259155, 3.9780707359313965, 15.222466468811035, 1.2996922731399536, 
144, 476697668, -155.56231689453125, -77.56562042236328, -157.47216796875, 9.893671989440918, -0.6773322224617004, -1.4165211915969849, 4.065185070037842, 15.772223472595215, 1.3407773971557617, 
145, 476706001, -155.2267303466797, -77.68233489990234, -157.7793731689453, 9.88853931427002, -0.6989173293113708, -1.4576733112335205, 4.207215785980225, 16.356178283691406, 1.4427732229232788, 
146, 476714334, -154.91009521484375, -77.81019592285156, -158.0606231689453, 9.897339820861816, -0.6976267695426941, -1.4520543813705444, 4.215642929077148, 16.9449462890625, 1.3450804948806763, 
147, 476722667, -154.54783630371094, -77.9324722290039, -158.39480590820312, 9.902265548706055, -0.7077217698097229, -1.4796900749206543, 4.20962381362915, 17.196069717407227, 1.450252652168274, 
148, 476731000, -154.1963348388672, -78.06574249267578, -158.71420288085938, 9.919230461120605, -0.6842814087867737, -1.492506504058838, 4.23649263381958, 17.757455825805664, 1.5204099416732788, 
149, 476739333, -153.79833984375, -78.19364929199219, -159.08360290527344, 9.87799072265625, -0.7304960489273071, -1.4670655727386475, 4.330163955688477, 18.125225067138672, 1.5625197887420654, 
150, 476747666, -153.41615295410156, -78.3316650390625, -159.42726135253906, 9.910101890563965, -0.6975225806236267, -1.4666087627410889, 4.451191425323486, 18.440563201904297, 1.5178486108779907, 
151, 476755999, -152.9887237548828, -78.46353149414062, -159.82594299316406, 9.894068717956543, -0.7040958404541016, -1.4959404468536377, 4.372556209564209, 18.797061920166016, 1.553401231765747, 
152, 476764332, -152.5759735107422, -78.60472106933594, -160.20199584960938, 9.888262748718262, -0.687149703502655, -1.5524457693099976, 4.442867755889893, 18.97726058959961, 1.5674893856048584, 
153, 476772665, -152.11900329589844, -78.73820495605469, -160.62979125976562, 9.90882396697998, -0.6886051297187805, -1.5190783739089966, 4.439742565155029, 19.196773529052734, 1.601223111152649, 
154, 476780998, -151.6724395751953, -78.88066864013672, -161.04493713378906, 9.920332908630371, -0.723661482334137, -1.5471100807189941, 4.461822032928467, 19.36613655090332, 1.7073173522949219, 
155, 476789331, -151.18360900878906, -79.0146484375, -161.5051727294922, 9.881179809570312, -0.6941413283348083, -1.6136162281036377, 4.398913860321045, 19.506811141967773, 1.7136955261230469, 
156, 476797664, -150.7039794921875, -79.1561279296875, -161.95314025878906, 9.878165245056152, -0.6841659545898438, -1.6540676355361938, 4.591763019561768, 19.49431037902832, 1.88364577293396, 
157, 476805997, -150.19119262695312, -79.28728485107422, -162.43650817871094, 9.832629203796387, -0.690714418888092, -1.683499813079834, 4.5038042068481445, 19.368799209594727, 1.7760149240493774, 
158, 476814330, -149.6964111328125, -79.42564392089844, -162.8979034423828, 9.845254898071289, -0.6569309830665588, -1.7186027765274048, 4.4174580574035645, 19.267597198486328, 1.8397172689437866, 
159, 476822663, -149.1689910888672, -79.55256652832031, -163.39553833007812, 9.842129707336426, -0.6584049463272095, -1.7389401197433472, 4.517584323883057, 18.972881317138672, 1.7472500801086426, 
160, 476830996, -148.66744995117188, -79.68560028076172, -163.86407470703125, 9.839346885681152, -0.6773866415023804, -1.7234784364700317, 4.333058834075928, 18.725086212158203, 1.7572137117385864, 
161, 476839329, -148.12942504882812, -79.80624389648438, -164.37327575683594, 9.815532684326172, -0.6730729341506958, -1.7732884883880615, 4.375936508178711, 18.347299575805664, 1.7953020334243774, 
162, 476847662, -147.6246337890625, -79.93253326416016, -164.84442138671875, 9.808103561401367, -0.6646855473518372, -1.7628980875015259, 4.411848545074463, 18.008655548095703, 1.6908217668533325, 
163, 476855995, -147.0853271484375, -80.04698944091797, -165.35476684570312, 9.782544136047363, -0.66973477602005, -1.7694218158721924, 4.347146034240723, 17.628616333007812, 1.6731221675872803, 
164, 476864328, -146.58140563964844, -80.16548919677734, -165.82577514648438, 9.7963285446167, -0.6447972655296326, -1.777298092842102, 4.254064083099365, 17.168764114379883, 1.702194333076477, 
165, 476872661, -146.04844665527344, -80.2715072631836, -166.3301544189453, 9.787904739379883, -0.6611281037330627, -1.8056001663208008, 4.2436909675598145, 16.603458404541016, 1.623866081237793, 
166, 476880994, -145.55601501464844, -80.38090515136719, -166.7903594970703, 9.780182838439941, -0.6639711260795593, -1.8027313947677612, 4.257931709289551, 16.09276008605957, 1.650786280632019, 
167, 476889327, -145.03253173828125, -80.47736358642578, -167.28529357910156, 9.769896507263184, -0.6687425374984741, -1.8265048265457153, 4.198608875274658, 15.457348823547363, 1.6514267921447754, 
168, 476897660, -144.56265258789062, -80.57640075683594, -167.72410583496094, 9.766958236694336, -0.6785638332366943, -1.819244384765625, 4.176734924316406, 14.805492401123047, 1.583164930343628, 
169, 476905993, -144.05892944335938, -80.66272735595703, -168.20005798339844, 9.761366844177246, -0.6678944826126099, -1.8567814826965332, 4.041645526885986, 14.166852951049805, 1.6429487466812134, 
170, 476914326, -143.61685180664062, -80.75116729736328, -168.6114044189453, 9.748170852661133, -0.6603861451148987, -1.8917937278747559, 4.074124336242676, 13.473320960998535, 1.54031240940094, 
171, 476922659, -143.15264892578125, -80.82710266113281, -169.046630859375, 9.741852760314941, -0.6352065205574036, -1.9125574827194214, 4.086623668670654, 12.61319351196289, 1.4128557443618774, 
172, 476930992, -142.74966430664062, -80.90300750732422, -169.42088317871094, 9.719377517700195, -0.6591607928276062, -1.9352900981903076, 3.96321439743042, 11.872969627380371, 1.562494158744812, 
173, 476939325, -142.32717895507812, -80.96625518798828, -169.81614685058594, 9.715320587158203, -0.6286707520484924, -1.9366956949234009, 3.8060193061828613, 10.894221305847168, 1.446768879890442, 
174, 476947658, -141.98281860351562, -81.02970123291016, -170.1339874267578, 9.71581745147705, -0.6378352642059326, -1.9745241403579712, 3.794928789138794, 10.075565338134766, 1.4078352451324463, 
175, 476955991, -141.6104736328125, -81.08086395263672, -170.47950744628906, 9.69849967956543, -0.6762625575065613, -1.9513784646987915, 3.6741061210632324, 9.136752128601074, 1.401867151260376, 
176, 476964324, -141.32684326171875, -81.13014221191406, -170.73744201660156, 9.694375991821289, -0.6506932377815247, -1.9972437620162964, 3.666985511779785, 8.12419605255127, 1.443721055984497, 
177, 476972657, -141.02049255371094, -81.1685791015625, -171.0175323486328, 9.691537857055664, -0.6466031074523926, -1.9903571605682373, 3.5015177726745605, 7.161101341247559, 1.274999976158142, 
178, 476980990, -140.80728149414062, -81.20436096191406, -171.2049560546875, 9.684944152832031, -0.633017361164093, -1.9866029024124146, 3.538530111312866, 6.174772262573242, 1.3735378980636597, 
179, 476989323, -140.5618133544922, -81.22956085205078, -171.4248046875, 9.684630393981934, -0.6534135937690735, -2.011791229248047, 3.3236520290374756, 5.210293769836426, 1.3512789011001587, 
180, 476997656, -140.42483520507812, -81.25228118896484, -171.5350799560547, 9.69115924835205, -0.6667436957359314, -1.9540122747421265, 3.3517508506774902, 4.221097946166992, 1.2646005153656006, 
181, 477005989, -140.25843811035156, -81.26374053955078, -171.67501831054688, 9.661218643188477, -0.652499258518219, -1.9978671073913574, 3.3117926120758057, 3.0121572017669678, 1.2377310991287231, 
182, 477014322, -140.2096405029297, -81.27192687988281, -171.6993408203125, 9.664767265319824, -0.6566774845123291, -2.0102710723876953, 3.1972708702087402, 1.9664044380187988, 1.160529613494873, 
183, 477022655, -140.12257385253906, -81.26996612548828, -171.76162719726562, 9.66860580444336, -0.6476414799690247, -2.0015130043029785, 3.0063681602478027, 0.8734197616577148, 1.1765130758285522, 
184, 477030988, -140.154052734375, -81.26429748535156, -171.70680236816406, 9.665156364440918, -0.6408367156982422, -1.9999207258224487, 3.0281145572662354, -0.1061069667339325, 1.1278460025787354, 
185, 477039321, -140.1488494873047, -81.2504653930664, -171.68667602539062, 9.649300575256348, -0.6547596454620361, -1.993219256401062, 2.961005449295044, -1.18047034740448, 0.9408621191978455, 
186, 477047654, -140.2674560546875, -81.2303466796875, -171.54588317871094, 9.670958518981934, -0.6431047916412354, -1.993569254875183, 2.7761218547821045, -2.31085205078125, 1.0431909561157227, 
187, 477055987, -140.33578491210938, -81.20154571533203, -171.4529571533203, 9.664207458496094, -0.6408225893974304, -1.9907031059265137, 2.7617270946502686, -3.4228689670562744, 1.0670890808105469, 
188, 477064320, -140.5349884033203, -81.16682434082031, -171.22894287109375, 9.664361953735352, -0.6671746373176575, -1.9989451169967651, 2.7920541763305664, -4.501971244812012, 0.9977256655693054, 
189, 477072653, -140.6786346435547, -81.12487030029297, -171.06094360351562, 9.67444896697998, -0.6548925042152405, -1.9825072288513184, 2.6332716941833496, -5.523748397827148, 0.9639661908149719, 
190, 477080986, -140.95437622070312, -81.07711791992188, -170.76368713378906, 9.682168960571289, -0.6558770537376404, -1.995761752128601, 2.4639358520507812, -6.5118937492370605, 0.8694751858711243, 
191, 477089319, -141.1645965576172, -81.02191162109375, -170.52955627441406, 9.693758010864258, -0.6376989483833313, -1.980294108390808, 2.4820196628570557, -7.560055732727051, 0.9352526664733887, 
192, 477097652, -141.50827026367188, -80.95877838134766, -170.16561889648438, 9.700828552246094, -0.6532938480377197, -1.9749053716659546, 2.337401866912842, -8.672943115234375, 0.9233165383338928, 
193, 477105985, -141.7870635986328, -80.89009857177734, -169.8630828857422, 9.678982734680176, -0.6631051301956177, -1.9810060262680054, 2.3460590839385986, -9.670282363891602, 0.7997276186943054, 
194, 477114318, -142.1957550048828, -80.81478881835938, -169.4348907470703, 9.698680877685547, -0.6496092081069946, -1.9397850036621094, 2.1992385387420654, -10.54521656036377, 0.6724762320518494, 
195, 477122651, -142.5280303955078, -80.73393249511719, -169.07977294921875, 9.697351455688477, -0.6464211940765381, -1.9220654964447021, 2.146575450897217, -11.503622055053711, 0.6950423121452332, 
196, 477130984, -142.98403930664062, -80.64396667480469, -168.60214233398438, 9.722675323486328, -0.6492878794670105, -1.9612209796905518, 2.156975269317627, -12.488338470458984, 0.7373571395874023, 
197, 477139317, -143.36050415039062, -80.54953002929688, -168.20350646972656, 9.720874786376953, -0.6481375098228455, -1.9481518268585205, 1.970016598701477, -13.403328895568848, 0.7233460545539856, 
198, 477147650, -143.8582305908203, -80.4468994140625, -167.68655395507812, 9.71884536743164, -0.6475247740745544, -1.9031319618225098, 1.9524964094161987, -14.208972930908203, 0.6486036777496338, 
199, 477155983, -144.27154541015625, -80.34011840820312, -167.25051879882812, 9.710100173950195, -0.6761834025382996, -1.9211437702178955, 1.9455294609069824, -15.149323463439941, 0.6462472081184387, 
200, 477164316, -144.80294799804688, -80.22469329833984, -166.70103454589844, 9.738421440124512, -0.6671072244644165, -1.896483063697815, 1.8091593980789185, -15.905610084533691, 0.5648964643478394, 
201, 477172649, -145.2385711669922, -80.10723876953125, -166.2434539794922, 9.771608352661133, -0.6567361354827881, -1.857708215713501, 1.78523588180542, -16.558622360229492, 0.5901521444320679, 
202, 477180982, -145.78256225585938, -79.97944641113281, -165.6817169189453, 9.764938354492188, -0.675395667552948, -1.8506768941879272, 1.7573161125183105, -17.362777709960938, 0.6816461682319641, 
203, 477189315, -146.232421875, -79.85160064697266, -165.21011352539062, 9.758752822875977, -0.6558560729026794, -1.8296538591384888, 1.6945868730545044, -17.890483856201172, 0.5625399947166443, 
204, 477197648, -146.78843688964844, -79.71491241455078, -164.6360321044922, 9.767584800720215, -0.6454718708992004, -1.8246172666549683, 1.6523748636245728, -18.501745223999023, 0.49071767926216125, 
205, 477205981, -147.2451171875, -79.57866668701172, -164.158447265625, 9.790765762329102, -0.6758453845977783, -1.7994276285171509, 1.5415418148040771, -18.94545555114746, 0.4655900299549103, 
206, 477214314, -147.7996368408203, -79.43241882324219, -163.58578491210938, 9.77713680267334, -0.6792212724685669, -1.7954181432724, 1.4999443292617798, -19.57170295715332, 0.5278070569038391, 
207, 477222647, -148.25460815429688, -79.28705596923828, -163.10902404785156, 9.80736255645752, -0.6740497350692749, -1.7826263904571533, 1.5862388610839844, -20.0224609375, 0.4936120808124542, 
208, 477230980, -148.807373046875, -79.13217163085938, -162.5380859375, 9.813801765441895, -0.6555304527282715, -1.7559329271316528, 1.561111330986023, -20.592941284179688, 0.4224044978618622, 
209, 477239313, -149.26104736328125, -78.97898864746094, -162.0626678466797, 9.842284202575684, -0.6581087708473206, -1.7512149810791016, 1.540722131729126, -20.948570251464844, 0.3854686915874481, 
210, 477247646, -149.79762268066406, -78.81893157958984, -161.5114288330078, 9.83370304107666, -0.6613582968711853, -1.729459524154663, 1.4147003889083862, -21.10976219177246, 0.39548397064208984, 
211, 477255979, -150.2344970703125, -78.65950012207031, -161.0535430908203, 9.821998596191406, -0.6646344065666199, -1.7285656929016113, 1.4393922090530396, -21.540462493896484, 0.4859277904033661, 
212, 477264312, -150.7543487548828, -78.49455261230469, -160.51437377929688, 9.864021301269531, -0.6970387697219849, -1.7057346105575562, 1.43306565284729, -21.604755401611328, 0.3352136015892029, 
213, 477272645, -151.17800903320312, -78.33055114746094, -160.07020568847656, 9.83599853515625, -0.6877313256263733, -1.6773847341537476, 1.3554545640945435, -21.998395919799805, 0.41167211532592773, 
214, 477280978, -151.6780242919922, -78.16143035888672, -159.5543670654297, 9.869942665100098, -0.69497150182724, -1.647077202796936, 1.254560112953186, -21.975778579711914, 0.3317813277244568, 
215, 477289311, -152.07591247558594, -77.9952163696289, -159.13583374023438, 9.885531425476074, -0.7039318084716797, -1.5838589668273926, 1.3637280464172363, -22.091325759887695, 0.48779764771461487, 
216, 477297644, -152.54293823242188, -77.82498931884766, -158.65411376953125, 9.905275344848633, -0.7175498604774475, -1.5477287769317627, 1.3637537956237793, -21.90342140197754, 0.4349299371242523, 
217, 477305977, -152.91644287109375, -77.6603012084961, -158.26014709472656, 9.88379192352295, -0.7135301828384399, -1.4967039823532104, 1.3496915102005005, -21.766565322875977, 0.37465959787368774, 
218, 477314310, -153.34963989257812, -77.49076080322266, -157.80767822265625, 9.893755912780762, -0.7102563977241516, -1.517345905303955, 1.4829366207122803, -21.655780792236328, 0.5371307134628296, 
219, 477322643, -153.68748474121094, -77.32679748535156, -157.44921875, 9.887418746948242, -0.706882655620575, -1.502606749534607, 1.4170312881469727, -21.383066177368164, 0.621299147605896, 
220, 477330976, -154.0829315185547, -77.16143798828125, -157.03736877441406, 9.883009910583496, -0.7089185118675232, -1.4849954843521118, 1.473023772239685, -20.972288131713867, 0.6507042050361633, 
221, 477339309, -154.391845703125, -77.00126647949219, -156.7077178955078, 9.908082962036133, -0.7139124870300293, -1.468801498413086, 1.4617537260055542, -20.74795913696289, 0.6385887265205383, 
222, 477347642, -154.7548370361328, -76.84042358398438, -156.32777404785156, 9.880290985107422, -0.7159296870231628, -1.457312822341919, 1.4612157344818115, -20.301015853881836, 0.7187868356704712, 
223, 477355975, -155.03346252441406, -76.68614196777344, -156.0290985107422, 9.909893989562988, -0.6994065046310425, -1.462530493736267, 1.4321435689926147, -19.833274841308594, 0.6782650947570801, 
224, 477364308, -155.36416625976562, -76.53168487548828, -155.6825408935547, 9.908486366271973, -0.7008531093597412, -1.435628056526184, 1.655346155166626, -19.448575973510742, 0.7346165180206299, 
225, 477372641, -155.60984802246094, -76.38404083251953, -155.41482543945312, 9.898307800292969, -0.7018889784812927, -1.4058855772018433, 1.7360055446624756, -18.828201293945312, 0.7639704942703247, 
226, 477380974, -155.90708923339844, -76.23760223388672, -155.10252380371094, 9.892759323120117, -0.7124233245849609, -1.4129263162612915, 1.6701765060424805, -18.351667404174805, 0.8234978318214417, 
227, 477389307, -156.12472534179688, -76.09750366210938, -154.86386108398438, 9.896981239318848, -0.7118443846702576, -1.4152270555496216, 1.6750943660736084, -17.73213768005371, 0.8437074422836304, 
228, 477397640, -156.38880920410156, -75.9609375, -154.5827178955078, 9.930135726928711, -0.7198668122291565, -1.3651636838912964, 1.7859272956848145, -17.080049514770508, 0.8917085528373718, 
229, 477405973, -156.57447814941406, -75.83147430419922, -154.374267578125, 9.936362266540527, -0.7068317532539368, -1.332108497619629, 1.9625118970870972, -16.269256591796875, 0.8844084739685059, 
230, 477414306, -156.80503845214844, -75.70613861083984, -154.13003540039062, 9.932267189025879, -0.7026424407958984, -1.333318829536438, 1.8588893413543701, -15.652758598327637, 1.003143310546875, 
231, 477422639, -156.96160888671875, -75.58637237548828, -153.9515380859375, 9.91480541229248, -0.693678081035614, -1.3078207969665527, 1.9581446647644043, -14.88156509399414, 1.0314213037490845, 
232, 477430972, -157.15994262695312, -75.47439575195312, -153.73655700683594, 9.909683227539062, -0.7072192430496216, -1.2812687158584595, 1.9167007207870483, -13.989166259765625, 1.0725066661834717, 
233, 477439305, -157.287353515625, -75.36764526367188, -153.58639526367188, 9.94471549987793, -0.6858101487159729, -1.2954193353652954, 2.1409146785736084, -13.148210525512695, 1.057970404624939, 
234, 477447638, -157.4539337158203, -75.27031707763672, -153.40283203125, 9.923580169677734, -0.6770080924034119, -1.2861942052841187, 2.2133262157440186, -12.205683708190918, 1.085556983947754, 
235, 477455971, -157.5517578125, -75.17807006835938, -153.28253173828125, 9.907073974609375, -0.6895348429679871, -1.2842316627502441, 2.214299440383911, -11.217254638671875, 1.120341181755066, 
236, 477464304, -157.68490600585938, -75.09590911865234, -153.13241577148438, 9.910676956176758, -0.66697758436203, -1.2729756832122803, 2.2558460235595703, -10.304646492004395, 1.256404161453247, 
237, 477472637, -157.75564575195312, -75.01754760742188, -153.0384979248047, 9.914196014404297, -0.6895307898521423, -1.2335598468780518, 2.3938937187194824, -9.387106895446777, 1.1679195165634155, 
238, 477480970, -157.85769653320312, -74.95197296142578, -152.91925048828125, 9.918359756469727, -0.6843233704566956, -1.2436089515686035, 2.4635133743286133, -8.28077507019043, 1.30923330783844, 
239, 477489303, -157.90106201171875, -74.88883972167969, -152.85247802734375, 9.904741287231445, -0.6932990550994873, -1.234643578529358, 2.5271518230438232, -7.388260841369629, 1.2201600074768066, 
240, 477497636, -157.97825622558594, -74.8396224975586, -152.7588348388672, 9.917980194091797, -0.6926767826080322, -1.247463583946228, 2.573410749435425, -6.35418701171875, 1.2569416761398315, 
241, 477505969, -157.99269104003906, -74.7929458618164, -152.72064208984375, 9.913731575012207, -0.6868869066238403, -1.2502374649047852, 2.6949503421783447, -5.229619979858398, 1.2883703708648682, 
242, 477514302, -158.03811645507812, -74.7615966796875, -152.6584930419922, 9.904067039489746, -0.7035511136054993, -1.2366994619369507, 2.8046305179595947, -4.17239236831665, 1.3464123010635376, 
243, 477522635, -158.02613830566406, -74.7304458618164, -152.64645385742188, 9.914993286132812, -0.6998972296714783, -1.2321187257766724, 2.836085081100464, -3.200204372406006, 1.3549162149429321, 
244, 477530968, -158.04327392578125, -74.7162094116211, -152.61441040039062, 9.909879684448242, -0.6798923015594482, -1.2322458028793335, 2.7949483394622803, -2.0878288745880127, 1.4432084560394287, 
245, 477539301, -158.004638671875, -74.70157623291016, -152.6283721923828, 9.894845962524414, -0.7039842009544373, -1.2528870105743408, 3.025963306427002, -1.057086706161499, 1.3802742958068848, 
246, 477547634, -157.991455078125, -74.70515441894531, -152.6239013671875, 9.90746784210205, -0.7017843723297119, -1.2564382553100586, 3.1825942993164062, 0.05929695442318916, 1.4820908308029175, 
247, 477555967, -157.92440795898438, -74.70677947998047, -152.6661376953125, 9.91248607635498, -0.6967505812644958, -1.2343999147415161, 3.1659445762634277, 1.0910639762878418, 1.481347918510437, 
248, 477564300, -157.88577270507812, -74.72715759277344, -152.68600463867188, 9.90146541595459, -0.6808160543441772, -1.2477996349334717, 3.244145154953003, 2.071115493774414, 1.4969470500946045, 
249, 477572633, -157.79371643066406, -74.74554443359375, -152.7534637451172, 9.912195205688477, -0.6952360272407532, -1.2467212677001953, 3.2474751472473145, 3.2486279010772705, 1.4642633199691772, 
250, 477580966, -157.72804260253906, -74.78388214111328, -152.80133056640625, 9.917288780212402, -0.6828711032867432, -1.2352256774902344, 3.409331798553467, 4.227911472320557, 1.46244478225708, 
251, 477589299, -157.6088409423828, -74.81790924072266, -152.8946990966797, 9.916254043579102, -0.6958702802658081, -1.2544580698013306, 3.504718780517578, 5.285906791687012, 1.4973825216293335, 
252, 477597632, -157.51292419433594, -74.87200164794922, -152.97503662109375, 9.9120454788208, -0.6907253265380859, -1.2431716918945312, 3.4766712188720703, 6.188424587249756, 1.622764229774475, 
253, 477605965, -157.3668212890625, -74.92018127441406, -153.09600830078125, 9.928008079528809, -0.7026649713516235, -1.2585585117340088, 3.538811445236206, 7.180233001708984, 1.6091885566711426, 
254, 477614298, -157.24240112304688, -74.99089050292969, -153.20346069335938, 9.903814315795898, -0.6840444207191467, -1.2591838836669922, 3.656611442565918, 8.194275856018066, 1.6305768489837646, 
255, 477622631, -157.0671844482422, -75.0538330078125, -153.3523712158203, 9.925068855285645, -0.6958075761795044, -1.2851775884628296, 3.798309326171875, 9.148942947387695, 1.6561907529830933, 
256, 477630964, -156.91439819335938, -75.13937377929688, -153.48861694335938, 9.914194107055664, -0.7035276889801025, -1.2993565797805786, 3.8935177326202393, 10.025156021118164, 1.6444597244262695, 
257, 477639297, -156.71241760253906, -75.21636962890625, -153.6632537841797, 9.906989097595215, -0.6909461617469788, -1.2942622900009155, 4.003658771514893, 10.97851848602295, 1.6377487182617188, 
258, 477647630, -156.53213500976562, -75.31599426269531, -153.82437133789062, 9.916236877441406, -0.6993823647499084, -1.273573398590088, 4.0025835037231445, 11.749404907226562, 1.6503510475158691, 
259, 477655963, -156.30294799804688, -75.40568542480469, -154.02647399902344, 9.926536560058594, -0.6803382039070129, -1.3009005784988403, 4.070742607116699, 12.694518089294434, 1.6595208644866943, 
260, 477664296, -156.09500122070312, -75.51835632324219, -154.21600341796875, 9.929117202758789, -0.6989732980728149, -1.3519351482391357, 4.169051170349121, 13.359184265136719, 1.6296806335449219, 
261, 477672629, -155.83895874023438, -75.61878967285156, -154.44532775878906, 9.90244197845459, -0.6847193837165833, -1.3969577550888062, 4.111547470092773, 14.166085243225098, 1.7081114053726196, 
262, 477680962, -155.6024932861328, -75.74178314208984, -154.66253662109375, 9.900381088256836, -0.6928426623344421, -1.402658224105835, 4.252834796905518, 14.69581127166748, 1.717947006225586, 
263, 477689295, -155.31729125976562, -75.85160827636719, -154.92112731933594, 9.914761543273926, -0.705568253993988, -1.409423589706421, 4.181293964385986, 15.513699531555176, 1.8102864027023315, 
264, 477697628, -155.04920959472656, -75.98511505126953, -155.17124938964844, 9.911185264587402, -0.7110312581062317, -1.4206305742263794, 4.245201587677002, 16.095909118652344, 1.8217614889144897, 
265, 477705961, -154.73976135253906, -76.10149383544922, -155.4528045654297, 9.910924911499023, -0.7059662342071533, -1.4659310579299927, 4.391613006591797, 16.460172653198242, 1.8150252103805542, 
266, 477714294, -154.4461669921875, -76.24212646484375, -155.7283172607422, 9.921130180358887, -0.7009584903717041, -1.4756280183792114, 4.411309719085693, 17.04407501220703, 1.8121305704116821, 
267, 477722627, -154.1104278564453, -76.36532592773438, -156.0370330810547, 9.896343231201172, -0.6824268698692322, -1.4448453187942505, 4.344815254211426, 17.469860076904297, 1.8557517528533936, 
268, 477730960, -153.79197692871094, -76.51161193847656, -156.3383026123047, 9.879518508911133, -0.6990736722946167, -1.4889315366744995, 4.386311054229736, 17.821338653564453, 1.8464027643203735, 
269, 477739293, -153.42953491210938, -76.6396713256836, -156.6732177734375, 9.901105880737305, -0.7013152837753296, -1.4907786846160889, 4.455008029937744, 18.254886627197266, 1.9008841514587402, 
270, 477747626, -153.0828857421875, -76.79088592529297, -157.00221252441406, 9.897862434387207, -0.6905248761177063, -1.4838733673095703, 4.490996360778809, 18.56238555908203, 1.8958125114440918, 
271, 477755959, -152.69647216796875, -76.92245483398438, -157.36143493652344, 9.869184494018555, -0.7089676856994629, -1.5131384134292603, 4.4462995529174805, 18.848316192626953, 1.9124107360839844, 
272, 477764292, -152.3289031982422, -77.07643127441406, -157.7145538330078, 9.884891510009766, -0.6878179311752319, -1.520053744316101, 4.530699253082275, 18.976186752319336, 1.8324177265167236, 
273, 477772625, -151.92019653320312, -77.20919036865234, -158.09536743164062, 9.88473892211914, -0.6941310167312622, -1.5453795194625854, 4.554955005645752, 19.158557891845703, 1.925345778465271, 
274, 477780958, -151.52552795410156, -77.36422729492188, -158.47177124023438, 9.89440631866455, -0.6896312832832336, -1.5976617336273193, 4.476318836212158, 19.300281524658203, 1.9866149425506592, 
275, 477789291, -151.0968017578125, -77.49803161621094, -158.87222290039062, 9.891429901123047, -0.6905161142349243, -1.6379079818725586, 4.611972808837891, 19.425308227539062, 1.852780818939209, 
276, 477797624, -150.6855926513672, -77.65220642089844, -159.26507568359375, 9.832194328308105, -0.68545001745224, -1.6805822849273682, 4.575984477996826, 19.2772274017334, 1.9167908430099487, 
277, 477805957, -150.24581909179688, -77.78216552734375, -159.67721557617188, 9.849621772766113, -0.6518765687942505, -1.703404188156128, 4.518659591674805, 19.06334686279297, 1.863308072090149, 
278, 477814290, -149.83013916015625, -77.93299865722656, -160.0771026611328, 9.82880973815918, -0.6537142992019653, -1.714961051940918, 4.526216983795166, 18.87782859802246, 1.7358773946762085, 
279, 477822623, -149.3839874267578, -78.05892944335938, -160.49644470214844, 9.823731422424316, -0.678327739238739, -1.740312099456787, 4.388821125030518, 18.624679565429688, 1.7864141464233398, 
280, 477830956, -148.95980834960938, -78.20562744140625, -160.90721130371094, 9.809976577758789, -0.654295027256012, -1.7651941776275635, 4.418251991271973, 18.463205337524414, 1.7102372646331787, 
281, 477839289, -148.50965881347656, -78.32693481445312, -161.33016967773438, 9.818694114685059, -0.6592420935630798, -1.7771259546279907, 4.403113842010498, 18.09185218811035, 1.6750688552856445, 
282, 477847622, -148.08798217773438, -78.46696472167969, -161.7372283935547, 9.797785758972168, -0.6643091440200806, -1.7734860181808472, 4.386438369750977, 17.653024673461914, 1.613031029701233, 
283, 477855955, -147.64010620117188, -78.58023071289062, -162.15809631347656, 9.799114227294922, -0.663162112236023, -1.7710200548171997, 4.335543155670166, 17.140230178833008, 1.6918208599090576, 
284, 477864288, -147.2235870361328, -78.71322631835938, -162.55862426757812, 9.773877143859863, -0.6548814177513123, -1.7964022159576416, 4.26943302154541, 16.800355911254883, 1.539313554763794, 
285, 477872621, -146.7879638671875, -78.81910705566406, -162.96774291992188, 9.785837173461914, -0.6547137498855591, -1.7858093976974487, 4.207241535186768, 16.141965866088867, 1.5206917524337769, 
286, 477880954, -146.38470458984375, -78.94224548339844, -163.3558349609375, 9.75131607055664, -0.6474676132202148, -1.8111789226531982, 4.218921184539795, 15.569128036499023, 1.5320132970809937, 
287, 477889287, -145.96156311035156, -79.0386734008789, -163.75193786621094, 9.78785228729248, -0.6633203625679016, -1.8588892221450806, 4.207651615142822, 14.931718826293945, 1.5276588201522827, 
288, 477897620, -145.5807342529297, -79.15283966064453, -164.11940002441406, 9.754308700561523, -0.6447105407714844, -1.8414193391799927, 4.078120231628418, 14.348099708557129, 1.3702850341796875, 
289, 477905953, -145.1825408935547, -79.24015045166016, -164.4913787841797, 9.747173309326172, -0.6477746963500977, -1.8825724124908447, 4.038570880889893, 13.64360237121582, 1.3603209257125854, 
290, 477914286, -144.8315887451172, -79.34307098388672, -164.82809448242188, 9.72262954711914, -0.6390565633773804, -1.884321689605713, 3.979966163635254, 12.815112113952637, 1.3072739839553833, 
291, 477922619, -144.47203063964844, -79.41924285888672, -165.16162109375, 9.730900764465332, -0.6565729379653931, -1.9198116064071655, 3.926279306411743, 11.991459846496582, 1.1555352210998535, 
292, 477930952, -144.1671142578125, -79.50990295410156, -165.4542236328125, 9.734270095825195, -0.6477125287055969, -1.9416658878326416, 3.881991386413574, 11.029183387756348, 1.1003875732421875, 
293, 477939285, -143.84564208984375, -79.57353210449219, -165.7501983642578, 9.706106185913086, -0.6448662877082825, -1.966873049736023, 3.7618346214294434, 10.218390464782715, 1.1687008142471313, 
294, 477947618, -143.5807342529297, -79.65128326416016, -166.00167846679688, 9.715307235717773, -0.6320422887802124, -1.958248257637024, 3.7817625999450684, 9.295841217041016, 1.1437782049179077, 
295, 477955951, -143.3070831298828, -79.70298767089844, -166.2499237060547, 9.70213794708252, -0.6543437242507935, -1.9470127820968628, 3.6464686393737793, 8.41443157196045, 1.0358654260635376, 
296, 477964284, -143.09884643554688, -79.7684326171875, -166.44635009765625, 9.693774223327637, -0.6360242962837219, -1.9646791219711304, 3.591858148574829, 7.435401916503906, 0.9511589407920837, 
297, 477972617, -142.88063049316406, -79.8078842163086, -166.639892578125, 9.681892395019531, -0.640699565410614, -1.9360319375991821, 3.452261209487915, 6.501354217529297, 0.8912985920906067, 
298, 477980950, -142.73480224609375, -79.8605728149414, -166.77452087402344, 9.661175727844238, -0.6246622204780579, -1.98097562789917, 3.363610029220581, 5.469048500061035, 0.7851274609565735, 
299, 477989283, -142.57830810546875, -79.88668060302734, -166.90621948242188, 9.672759056091309, -0.6547625660896301, -1.9837740659713745, 3.356412172317505, 4.420504570007324, 0.7626125812530518, 
300, 477997616, -142.4959259033203, -79.92526245117188, -166.9778594970703, 9.682686805725098, -0.6280338764190674, -1.9818791151046753, 3.355311393737793, 3.3959097862243652, 0.7092326283454895, 
301, 478005949, -142.40017700195312, -79.93905639648438, -167.0492706298828, 9.653448104858398, -0.6365786194801331, -1.97029709815979, 3.1856682300567627, 2.455585479736328, 0.6447871327400208, 
302, 478014282, -142.38229370117188, -79.96461486816406, -167.058837890625, 9.670626640319824, -0.6555646061897278, -1.951280117034912, 3.035850763320923, 1.4425938129425049, 0.6320313215255737, 
303, 478022615, -142.35459899902344, -79.9646987915039, -167.0626678466797, 9.651479721069336, -0.6518099904060364, -1.9975601434707642, 3.0140268802642822, 0.2834727168083191, 0.5289338827133179, 
304, 478030948, -142.4080810546875, -79.97516632080078, -166.9991912841797, 9.662280082702637, -0.6475046873092651, -1.9907307624816895, 2.9769632816314697, -0.8256108164787292, 0.5735283493995667, 
305, 478039281, -142.4485321044922, -79.96160125732422, -166.93463134765625, 9.667963981628418, -0.6467916965484619, -2.0014827251434326, 2.926631450653076, -1.882326364517212, 0.3957655727863312, 
306, 478047614, -142.5739288330078, -79.9588623046875, -166.8016357421875, 9.68010425567627, -0.6606743931770325, -1.982147216796875, 2.690032482147217, -2.8749032020568848, 0.3837524354457855, 
307, 478055947, -142.6732177734375, -79.93092346191406, -166.67916870117188, 9.673728942871094, -0.6446524858474731, -1.9706363677978516, 2.696871519088745, -4.012201309204102, 0.4879768490791321, 
308, 478064280, -142.86572265625, -79.91336822509766, -166.47744750976562, 9.668991088867188, -0.6206789016723633, -1.995589256286621, 2.5952086448669434, -5.055750846862793, 0.34008023142814636, 
309, 478072613, -143.0364227294922, -79.87265014648438, -166.2841033935547, 9.681798934936523, -0.6373451352119446, -1.9763189554214478, 2.519467353820801, -6.127321243286133, 0.17686626315116882, 
310, 478080946, -143.2933349609375, -79.84052276611328, -166.0197296142578, 9.686871528625488, -0.6483896374702454, -1.9483479261398315, 2.451385021209717, -7.190544128417969, 0.27663376927375793, 
311, 478089279, -143.51528930664062, -79.78662109375, -165.77528381347656, 9.680472373962402, -0.6344168782234192, -1.972590446472168, 2.4072256088256836, -8.070622444152832, 0.18337231874465942, 
312, 478097612, -143.8299560546875, -79.7411880493164, -165.4535675048828, 9.682339668273926, -0.6443727612495422, -1.968115210533142, 2.357150077819824, -9.132410049438477, 0.14582183957099915, 
313, 478105945, -144.10606384277344, -79.6742935180664, -165.15646362304688, 9.695637702941895, -0.635642945766449, -1.960027813911438, 2.1250853538513184, -10.022966384887695, 0.06641772389411926, 
314, 478114278, -144.47312927246094, -79.61488342285156, -164.78465270996094, 9.713129997253418, -0.6449186205863953, -1.9486918449401855, 2.133204698562622, -11.088772773742676, 0.08672980219125748, 
315, 478122611, -144.7970428466797, -79.53360748291016, -164.43853759765625, 9.699651718139648, -0.6494994759559631, -1.9442148208618164, 2.157819986343384, -12.095285415649414, 0.021080514416098595, 
316, 478130944, -145.20982360839844, -79.46078491210938, -164.02188110351562, 9.700119972229004, -0.6546953916549683, -1.9273808002471924, 2.014021873474121, -12.933205604553223, -0.02483300305902958, 
317, 478139277, -145.56690979003906, -79.36840057373047, -163.6436767578125, 9.703330039978027, -0.6446539163589478, -1.9215302467346191, 1.945196270942688, -13.659445762634277, -0.045964743942022324, 
318, 478147610, -146.0181884765625, -79.2828140258789, -163.18753051757812, 9.736876487731934, -0.6398976445198059, -1.9040515422821045, 1.916662573814392, -14.66611385345459, -0.15623405575752258, 
319, 478155943, -146.4040069580078, -79.17733001708984, -162.78038024902344, 9.743226051330566, -0.6610094308853149, -1.8848941326141357, 1.8933788537979126, -15.40213680267334, -0.0225533377379179, 
320, 478164276, -146.87474060058594, -79.07933807373047, -162.3058624267578, 9.753787994384766, -0.6717370748519897, -1.8700271844863892, 1.8476060628890991, -16.15662956237793, -0.062024880200624466, 
321, 478172609, -147.28286743164062, -78.9628677368164, -161.8765106201172, 9.774995803833008, -0.6463404893875122, -1.846520185470581, 1.8132835626602173, -16.861509323120117, -0.1161733940243721, 
322, 478180942, -147.7723846435547, -78.85475158691406, -161.3833465576172, 9.763976097106934, -0.6441225409507751, -1.8305917978286743, 1.696533441543579, -17.456039428710938, -0.17408718168735504, 
323, 478189275, -148.19430541992188, -78.72794342041016, -160.94056701660156, 9.765044212341309, -0.6600908637046814, -1.8217428922653198, 1.700785517692566, -18.178157806396484, -0.1571817845106125, 
324, 478197608, -148.69000244140625, -78.60993957519531, -160.4412841796875, 9.783329010009766, -0.6574594378471375, -1.8071825504302979, 1.5998910665512085, -18.588857650756836, -0.145578533411026, 
325, 478205941, -149.11257934570312, -78.47412109375, -159.99835205078125, 9.78670597076416, -0.6655699610710144, -1.8085815906524658, 1.6020170450210571, -19.20759391784668, -0.08664017170667648, 
326, 478214274, -149.6133575439453, -78.34710693359375, -159.4965362548828, 9.793414115905762, -0.6681967377662659, -1.772718906402588, 1.53434419631958, -19.64928436279297, -0.216760516166687, 
327, 478222607, -150.03819274902344, -78.20355224609375, -159.05239868164062, 9.81313705444336, -0.6464456915855408, -1.7947015762329102, 1.4299664497375488, -20.143796920776367, -0.15889796614646912, 
328, 478230940, -150.5328369140625, -78.06887817382812, -158.55674743652344, 9.813864707946777, -0.662440836429596, -1.7658071517944336, 1.4393668174743652, -20.446044921875, -0.1754191517829895, 
329, 478239273, -150.94810485839844, -77.91909790039062, -158.12164306640625, 9.813438415527344, -0.6698262691497803, -1.7420951128005981, 1.4756367206573486, -20.794708251953125, -0.14237678050994873, 
330, 478247606, -151.4353485107422, -77.7778091430664, -157.63475036621094, 9.824906349182129, -0.6617183685302734, -1.723288655281067, 1.3672114610671997, -21.147823333740234, -0.19611546397209167, 
331, 478255939, -151.8424072265625, -77.62138366699219, -157.207763671875, 9.841702461242676, -0.6964351534843445, -1.7170599699020386, 1.457783579826355, -21.510601043701172, -0.13410338759422302, 
332, 478264272, -152.31494140625, -77.47508239746094, -156.73561096191406, 9.822409629821777, -0.6861674189567566, -1.682559609413147, 1.3328115940093994, -21.608444213867188, -0.1634829342365265, 
333, 478272605, -152.70272827148438, -77.3158950805664, -156.32858276367188, 9.861061096191406, -0.6939013004302979, -1.662950873374939, 1.3833740949630737, -21.67745018005371, -0.07716290652751923, 
334, 478280938, -153.15147399902344, -77.1668472290039, -155.8825225830078, 9.894472122192383, -0.7034273743629456, -1.6320821046829224, 1.2814806699752808, -21.725786209106445, -0.027701806277036667, 
335, 478289271, -153.5189666748047, -77.00579071044922, -155.49632263183594, 9.894893646240234, -0.688836932182312, -1.5747936964035034, 1.3382930755615234, -21.729909896850586, -0.017148736864328384, 
336, 478297604, -153.9410858154297, -76.85694885253906, -155.07496643066406, 9.910847663879395, -0.6977038979530334, -1.5328904390335083, 1.341469168663025, -21.52366065979004, 0.04231473058462143, 
337, 478305937, -154.28378295898438, -76.6971664428711, -154.71302795410156, 9.87374210357666, -0.706387996673584, -1.5059597492218018, 1.4237679243087769, -21.402124404907227, 0.005148463416844606, 
338, 478314270, -154.6778106689453, -76.54861450195312, -154.32058715820312, 9.895910263061523, -0.6919284462928772, -1.5153981447219849, 1.4129842519760132, -21.30392074584961, 0.1993812918663025, 
339, 478322603, -154.9918975830078, -76.3899917602539, -153.9875946044922, 9.906875610351562, -0.6985900402069092, -1.4953240156173706, 1.4321945905685425, -21.022674560546875, 0.21175293624401093, 
340, 478330936, -155.35203552246094, -76.24578857421875, -153.62664794921875, 9.905814170837402, -0.6938813924789429, -1.476098895072937, 1.5576276779174805, -20.57342529296875, 0.3494551181793213, 
341, 478339269, -155.6332244873047, -76.09164428710938, -153.32644653320312, 9.902071952819824, -0.7160741090774536, -1.450167179107666, 1.5234071016311646, -20.22097396850586, 0.4179988503456116, 
342, 478347602, -155.9656524658203, -75.95275115966797, -152.9959259033203, 9.89822006225586, -0.7168887853622437, -1.465871810913086, 1.614030122756958, -19.799667358398438, 0.3918466866016388, 
343, 478355935, -156.21829223632812, -75.80437469482422, -152.7247314453125, 9.914205551147461, -0.7137953639030457, -1.44911527633667, 1.538416862487793, -19.321374893188477, 0.5453784465789795, 
344, 478364268, -156.5185546875, -75.67192077636719, -152.42562866210938, 9.897281646728516, -0.7179562449455261, -1.427019715309143, 1.5759419202804565, -18.84161949157715, 0.601012647151947, 
345, 478372601, -156.74693298339844, -75.5290298461914, -152.17820739746094, 9.92430305480957, -0.7074876427650452, -1.429307460784912, 1.6472008228302002, -18.49864387512207, 0.6200439929962158, 
346, 478380934, -157.01893615722656, -75.40479278564453, -151.907958984375, 9.897384643554688, -0.7192903161048889, -1.3858561515808105, 1.67739999294281, -17.753116607666016, 0.6635626554489136, 
347, 478389267, -157.2159881591797, -75.27082824707031, -151.6917724609375, 9.91704273223877, -0.706939697265625, -1.399247407913208, 1.7614917755126953, -17.194137573242188, 0.8003426194190979, 
348, 478397600, -157.458984375, -75.15616607666016, -151.44989013671875, 9.914641380310059, -0.7215479016304016, -1.388049840927124, 1.874680757522583, -16.499631881713867, 0.738253653049469, 
349, 478405933, -157.6299285888672, -75.03386688232422, -151.25872802734375, 9.900330543518066, -0.7131785750389099, -1.3505581617355347, 1.9688129425048828, -15.651875495910645, 0.7584376335144043, 
350, 478414266, -157.84019470214844, -74.93132781982422, -151.04934692382812, 9.914162635803223, -0.6874937415122986, -1.3237332105636597, 2.053544759750366, -14.914109230041504, 0.8857660293579102, 
351, 478422599, -157.98086547851562, -74.8185043334961, -150.88845825195312, 9.91362476348877, -0.7217283844947815, -1.3379591703414917, 2.0822582244873047, -14.278669357299805, 1.0338929891586304, 
352, 478430932, -158.15773010253906, -74.72891235351562, -150.71258544921875, 9.917612075805664, -0.6944740414619446, -1.299408197402954, 2.130438804626465, -13.212555885314941, 1.1168320178985596, 
353, 478439265, -158.2720947265625, -74.63060760498047, -150.5780792236328, 9.937704086303711, -0.7098345756530762, -1.2669415473937988, 2.1809241771698, -12.379911422729492, 1.031510829925537, 
354, 478447598, -158.42127990722656, -74.5540542602539, -150.4311065673828, 9.921882629394531, -0.703767716884613, -1.2713955640792847, 2.270932674407959, -11.582412719726562, 1.2254619598388672, 
355, 478455931, -158.50167846679688, -74.46842956542969, -150.3301544189453, 9.896870613098145, -0.7062199115753174, -1.2705092430114746, 2.369112014770508, -10.601617813110352, 1.3865753412246704, 
356, 478464264, -158.62130737304688, -74.40690612792969, -150.21124267578125, 9.894165992736816, -0.6956262588500977, -1.2497464418411255, 2.4453272819519043, -9.70162296295166, 1.3470655679702759, 
357, 478472597, -158.67906188964844, -74.33592224121094, -150.1326141357422, 9.907034873962402, -0.7085081934928894, -1.2548564672470093, 2.510579824447632, -8.710237503051758, 1.356581211090088, 
358, 478480930, -158.76791381835938, -74.290771484375, -150.04470825195312, 9.905890464782715, -0.7050631046295166, -1.2636195421218872, 2.5597074031829834, -7.641380310058594, 1.510087251663208, 
359, 478489263, -158.7957763671875, -74.23615264892578, -149.9961700439453, 9.89408016204834, -0.6951392292976379, -1.2206785678863525, 2.6211047172546387, -6.546857833862305, 1.530860424041748, 
360, 478497596, -158.85812377929688, -74.20779418945312, -149.935302734375, 9.92469310760498, -0.6982012987136841, -1.246439814567566, 2.6974093914031982, -5.593956470489502, 1.5537081956863403, 
361, 478505929, -158.85948181152344, -74.1681137084961, -149.91262817382812, 9.88674259185791, -0.7011539936065674, -1.2286025285720825, 2.8327040672302246, -4.570361137390137, 1.6557810306549072, 
362, 478514262, -158.89712524414062, -74.15667724609375, -149.87522888183594, 9.894512176513672, -0.701664924621582, -1.218170404434204, 2.884265422821045, -3.5405402183532715, 1.539697289466858, 
363, 478522595, -158.87554931640625, -74.13263702392578, -149.87513732910156, 9.888921737670898, -0.7103030681610107, -1.259935736656189, 2.9688050746917725, -2.573436737060547, 1.680511713027954, 
364, 478530928, -158.88255310058594, -74.13663482666016, -149.8686981201172, 9.912293434143066, -0.6855676174163818, -1.232061743736267, 3.041792869567871, -1.581384301185608, 1.7998865842819214, 
365, 478539261, -158.83412170410156, -74.12834930419922, -149.895751953125, 9.9279203414917, -0.7000568509101868, -1.2325345277786255, 3.0727603435516357, -0.489859402179718, 1.8320324420928955, 
366, 478547594, -158.81382751464844, -74.15033721923828, -149.9166259765625, 9.913859367370605, -0.7069035172462463, -1.2434300184249878, 3.230031728744507, 0.6179689764976501, 1.8380517959594727, 
367, 478555927, -158.73863220214844, -74.15890502929688, -149.96905517578125, 9.927192687988281, -0.6945319771766663, -1.2469743490219116, 3.366529941558838, 1.6895662546157837, 1.8787786960601807, 
368, 478564260, -158.68670654296875, -74.1980972290039, -150.02117919921875, 9.898968696594238, -0.709695041179657, -1.220666527748108, 3.4633522033691406, 2.780579090118408, 2.0262396335601807, 
369, 478572593, -158.58734130859375, -74.22203826904297, -150.09764099121094, 9.910536766052246, -0.7071216702461243, -1.2435894012451172, 3.4889280796051025, 3.6797285079956055, 1.9364235401153564, 
370, 478580926, -158.5100860595703, -74.2777328491211, -150.17523193359375, 9.906961441040039, -0.6950361728668213, -1.2559765577316284, 3.598569393157959, 4.801695823669434, 2.042607069015503, 
371, 478589259, -158.3813018798828, -74.31656646728516, -150.28170776367188, 9.89991283416748, -0.6982824802398682, -1.2808700799942017, 3.573160409927368, 5.702394962310791, 2.160048723220825, 
372, 478597592, -158.2770233154297, -74.38721466064453, -150.38690185546875, 9.912359237670898, -0.6981609463691711, -1.2676769495010376, 3.6853511333465576, 6.663057327270508, 2.1668365001678467, 
373, 478605925, -158.12222290039062, -74.44184875488281, -150.51870727539062, 9.914155006408691, -0.6923832297325134, -1.254748821258545, 3.7681360244750977, 7.7575273513793945, 2.17024302482605, 
374, 478614258, -157.99124145507812, -74.52803802490234, -150.64877319335938, 9.924769401550293, -0.7043412327766418, -1.288313388824463, 3.8549420833587646, 8.591116905212402, 2.1864054203033447, 
375, 478622591, -157.8132781982422, -74.59599304199219, -150.80320739746094, 9.895273208618164, -0.6714539527893066, -1.2748249769210815, 3.921052932739258, 9.482057571411133, 2.1737523078918457, 
376, 478630924, -157.65281677246094, -74.6961669921875, -150.96287536621094, 9.925503730773926, -0.711781919002533, -1.3252769708633423, 4.072970867156982, 10.373893737792969, 2.299466848373413, 
377, 478639257, -157.44393920898438, -74.77705383300781, -151.14837646484375, 9.914101600646973, -0.7006375193595886, -1.2997764348983765, 4.0296311378479, 11.276947975158691, 2.379793167114258, 
378, 478647590, -157.25689697265625, -74.8911361694336, -151.33580017089844, 9.906800270080566, -0.7010313868522644, -1.3176722526550293, 4.077530384063721, 12.12629222869873, 2.3180627822875977, 
379, 478655923, -157.0210418701172, -74.98424530029297, -151.5474853515625, 9.933836936950684, -0.7017087340354919, -1.347957730293274, 4.220022678375244, 12.915699005126953, 2.4178307056427, 
380, 478664256, -156.80841064453125, -75.10987091064453, -151.76077270507812, 9.911568641662598, -0.7082507610321045, -1.3710054159164429, 4.185673713684082, 13.594705581665039, 2.3215208053588867, 
381, 478672589, -156.54962158203125, -75.2127914428711, -151.99502563476562, 9.923831939697266, -0.7021365761756897, -1.4180986881256104, 4.335517883300781, 14.235779762268066, 2.403768301010132, 
382, 478680922, -156.3092803955078, -75.34799194335938, -152.23455810546875, 9.886533737182617, -0.7130815982818604, -1.381922960281372, 4.3213276863098145, 14.85213565826416, 2.4121956825256348, 
383, 478689255, -156.0269775390625, -75.4602279663086, -152.49224853515625, 9.909282684326172, -0.7138542532920837, -1.4413371086120605, 4.417508602142334, 15.50895881652832, 2.3711869716644287, 
384, 478697588, -155.760009765625, -75.60452270507812, -152.75820922851562, 9.909375190734863, -0.7136615514755249, -1.4466670751571655, 4.447643280029297, 16.06451988220215, 2.4161784648895264, 
385, 478705921, -155.45077514648438, -75.72306823730469, -153.04367065429688, 9.888368606567383, -0.7048417329788208, -1.4067950248718262, 4.395634651184082, 16.49208641052246, 2.535041332244873, 
386, 478714254, -155.15211486816406, -75.8746566772461, -153.34188842773438, 9.900906562805176, -0.7104992866516113, -1.4606153964996338, 4.508055210113525, 17.133724212646484, 2.593595504760742, 
387, 478722587, -154.81715393066406, -76.00055694580078, -153.6530303955078, 9.894842147827148, -0.6993355751037598, -1.465362787246704, 4.4612836837768555, 17.546907424926758, 2.525563955307007, 
388, 478730920, -154.49575805664062, -76.15729522705078, -153.9732666015625, 9.896926879882812, -0.707399308681488, -1.4704145193099976, 4.560513019561768, 17.85742950439453, 2.558401584625244, 
389, 478739253, -154.13687133789062, -76.28666687011719, -154.30743408203125, 9.875311851501465, -0.7045433521270752, -1.4943492412567139, 4.6061320304870605, 18.14031410217285, 2.5767159461975098, 
390, 478747586, -153.78883361816406, -76.44791412353516, -154.65472412109375, 9.889791488647461, -0.6897972822189331, -1.5122219324111938, 4.583617210388184, 18.56043815612793, 2.597745180130005, 
391, 478755919, -153.40875244140625, -76.57988739013672, -155.0104217529297, 9.892973899841309, -0.6780421137809753, -1.539995551109314, 4.600344181060791, 18.61515235900879, 2.5754354000091553, 
392, 478764252, -153.04002380371094, -76.7423324584961, -155.37948608398438, 9.894244194030762, -0.695608377456665, -1.5120325088500977, 4.629467010498047, 18.82967185974121, 2.5966694355010986, 
393, 478772585, -152.6360626220703, -76.8763198852539, -155.75985717773438, 9.905948638916016, -0.6995921730995178, -1.5405936241149902, 4.5455546379089355, 19.053897857666016, 2.632042646408081, 
394, 478780918, -152.2470703125, -77.0396728515625, -156.14828491210938, 9.886298179626465, -0.6912976503372192, -1.6257836818695068, 4.565507888793945, 19.058149337768555, 2.579584836959839, 
395, 478789251, -151.8260040283203, -77.17346954345703, -156.54550170898438, 9.873611450195312, -0.6873865723609924, -1.6490172147750854, 4.575830459594727, 19.150949478149414, 2.575511932373047, 
396, 478797584, -151.42332458496094, -77.33491516113281, -156.94981384277344, 9.843513488769531, -0.6639266014099121, -1.7053167819976807, 4.611255645751953, 18.921701431274414, 2.494110107421875, 
397, 478805917, -150.9944305419922, -77.46497344970703, -157.3549041748047, 9.828973770141602, -0.6633704304695129, -1.7490170001983643, 4.5658159255981445, 18.768735885620117, 2.482583999633789, 
398, 478814250, -150.58441162109375, -77.62230682373047, -157.76516723632812, 9.826626777648926, -0.6583372950553894, -1.732805848121643, 4.497579097747803, 18.488079071044922, 2.4150643348693848, 
399, 478822583, -150.15542602539062, -77.74795532226562, -158.17071533203125, 9.82444953918457, -0.6465498208999634, -1.742423415184021, 4.469864845275879, 18.20409393310547, 2.286557912826538, 
400, 478830916, -149.74374389648438, -77.8991928100586, -158.58193969726562, 9.799962043762207, -0.6673595309257507, -1.7555030584335327, 4.424271106719971, 17.79718589782715, 2.325542688369751, 
401, 478839249, -149.31260681152344, -78.01934051513672, -158.98919677734375, 9.806442260742188, -0.637508749961853, -1.7566256523132324, 4.476728439331055, 17.54549789428711, 2.2020304203033447, 
402, 478847582, -148.9002227783203, -78.16532897949219, -159.4011993408203, 9.803716659545898, -0.6361517906188965, -1.8160322904586792, 4.413435935974121, 17.16914939880371, 2.1874051094055176, 
403, 478855915, -148.4697723388672, -78.27859497070312, -159.80841064453125, 9.765703201293945, -0.6685534715652466, -1.8083256483078003, 4.364641189575195, 16.740753173828125, 2.185586452484131, 
404, 478864248, -148.0654754638672, -78.41559600830078, -160.21463012695312, 9.772692680358887, -0.6573630571365356, -1.7911456823349, 4.289796352386475, 16.0872802734375, 2.1432714462280273, 
405, 478872581, -147.65182495117188, -78.52055358886719, -160.605224609375, 9.760183334350586, -0.6645626425743103, -1.812242865562439, 4.272634506225586, 15.585931777954102, 1.965303659439087, 
406, 478880914, -147.26779174804688, -78.64974212646484, -160.98953247070312, 9.751928329467773, -0.6327670216560364, -1.8039525747299194, 4.195664405822754, 14.976981163024902, 1.831700325012207, 
407, 478889247, -146.87228393554688, -78.74675750732422, -161.36195373535156, 9.75484561920166, -0.6363146901130676, -1.8739874362945557, 4.2074971199035645, 14.465641975402832, 1.7553181648254395, 
408, 478897580, -146.50738525390625, -78.86624145507812, -161.7278594970703, 9.742094993591309, -0.6670441627502441, -1.8653945922851562, 4.103169918060303, 13.705717086791992, 1.744201421737671, 
409, 478905913, -146.13719177246094, -78.95238494873047, -162.07553100585938, 9.760372161865234, -0.6420450210571289, -1.8477202653884888, 4.055682182312012, 12.972587585449219, 1.6880296468734741, 
410, 478914246, -145.8028564453125, -79.06105041503906, -162.4112091064453, 9.740785598754883, -0.6581305861473083, -1.9369274377822876, 3.9480509757995605, 12.216147422790527, 1.5877498388290405, 
411, 478922579, -145.46484375, -79.13507080078125, -162.7267608642578, 9.725006103515625, -0.6377995014190674, -1.9002970457077026, 3.964930295944214, 11.289885520935059, 1.6422312259674072, 
412, 478930912, -145.17007446289062, -79.23109436035156, -163.02301025390625, 9.696141242980957, -0.653662383556366, -1.904979944229126, 3.875690221786499, 10.445178985595703, 1.4679007530212402, 
413, 478939245, -144.880615234375, -79.29361724853516, -163.29010009765625, 9.827482223510742, -0.6342310309410095, -1.9082757234573364, 3.845926284790039, 9.483516693115234, 1.3362691402435303, 
414, 478947578, -144.62094116210938, -79.37773132324219, -163.55117797851562, 9.70715618133545, -0.6452139019966125, -2.0064187049865723, 3.753253936767578, 8.85046100616455, 1.471973180770874, 
415, 478955911, -144.37278747558594, -79.42891693115234, -163.7783203125, 9.57546615600586, -0.6403489708900452, -1.977128267288208, 3.587606906890869, 7.81259822845459, 1.265804409980774, 
416, 478964244, -144.18402099609375, -79.49964904785156, -163.9693603515625, 9.548270225524902, -0.6149494647979736, -1.9686315059661865, 3.5193965435028076, 6.687057971954346, 1.0243903398513794, 
417, 478972577, -144.00833129882812, -79.5378646850586, -164.124755859375, 9.669774055480957, -0.6268384456634521, -1.931766390800476, 3.35300612449646, 5.591511249542236, 0.8189128041267395, 
418, 478980910, -143.88638305664062, -79.59468841552734, -164.24961853027344, 9.828916549682617, -0.6804792284965515, -1.984963297843933, 3.339686632156372, 4.541326999664307, 0.7723717093467712, 
419, 478989243, -143.75872802734375, -79.61973571777344, -164.3566131591797, 9.686423301696777, -0.6599794030189514, -1.9781891107559204, 3.3156347274780273, 3.686221122741699, 0.8509818315505981, 
420, 478997576, -143.6823272705078, -79.6634750366211, -164.43572998046875, 9.689817428588867, -0.6466223001480103, -1.9594253301620483, 3.274190902709961, 2.751224994659424, 0.8794136047363281, 
421, 479005909, -143.60740661621094, -79.6766586303711, -164.490478515625, 9.724454879760742, -0.644707441329956, -1.9803699254989624, 3.1547513008117676, 1.8528310060501099, 0.7768027782440186, 
422, 479014242, -143.60226440429688, -79.7074966430664, -164.50027465820312, 9.695158004760742, -0.6463305950164795, -1.9672675132751465, 2.9245822429656982, 0.7017019987106323, 0.5899470448493958, 
423, 479022575, -143.59085083007812, -79.7068862915039, -164.49142456054688, 9.621577262878418, -0.6303924322128296, -1.9826183319091797, 3.0497334003448486, -0.2980600893497467, 0.6616414189338684, 
424, 479030908, -143.65219116210938, -79.72254943847656, -164.4330596923828, 9.597182273864746, -0.6132297515869141, -1.993224024772644, 2.891796350479126, -1.5284655094146729, 0.5198665857315063, 
425, 479039241, -143.71609497070312, -79.70830535888672, -164.34942626953125, 9.628133773803711, -0.6371132135391235, -2.002417802810669, 2.84494686126709, -2.573474407196045, 0.3438710570335388, 
426, 479047574, -143.85354614257812, -79.71158599853516, -164.21697998046875, 9.639869689941406, -0.6377230882644653, -1.9989662170410156, 2.687676191329956, -3.5940747261047363, 0.10519766062498093, 
427, 479055907, -143.98611450195312, -79.68376922607422, -164.06600952148438, 9.684121131896973, -0.6238740682601929, -1.9485355615615845, 2.568774938583374, -4.745946884155273, 0.12866032123565674, 
428, 479064240, -144.1844482421875, -79.67108917236328, -163.8724822998047, 9.74722671508789, -0.647776186466217, -1.9615832567214966, 2.561807632446289, -5.814187526702881, 0.15704087913036346, 
429, 479072573, -144.36495971679688, -79.63048553466797, -163.67393493652344, 9.760004043579102, -0.634208619594574, -1.9282150268554688, 2.450744152069092, -6.593680381774902, 0.14863941073417664, 
430, 479080906, -144.6181182861328, -79.60668182373047, -163.42578125, 9.680715560913086, -0.6390807032585144, -1.941709280014038, 2.4073541164398193, -7.515230655670166, -0.05941222235560417, 
431, 479089239, -144.85464477539062, -79.55410766601562, -163.17181396484375, 9.57215404510498, -0.6512197256088257, -1.9965734481811523, 2.2701127529144287, -8.474278450012207, -0.07662498205900192, 
432, 479097572, -145.1607666015625, -79.51570129394531, -162.8720703125, 9.701735496520996, -0.6480130553245544, -1.9951858520507812, 2.2347395420074463, -9.532196044921875, -0.0714765265583992, 
433, 479105905, -145.455810546875, -79.44833374023438, -162.55975341796875, 9.682638168334961, -0.6493654251098633, -1.9438308477401733, 2.1299009323120117, -10.683531761169434, -0.24055612087249756, 
434, 479114238, -145.8210906982422, -79.3952407836914, -162.20077514648438, 9.683306694030762, -0.643801212310791, -1.947483777999878, 2.065762519836426, -11.650084495544434, -0.2900940477848053, 
435, 479122571, -146.1647186279297, -79.31636810302734, -161.8404998779297, 9.700851440429688, -0.6270305514335632, -1.9374868869781494, 1.9493974447250366, -12.463953971862793, -0.5342746376991272, 
436, 479130904, -146.5760040283203, -79.25189971923828, -161.43695068359375, 9.747087478637695, -0.6700184941291809, -1.9375232458114624, 1.9779314994812012, -13.301230430603027, -0.6085558533668518, 
437, 479139237, -146.94552612304688, -79.16082763671875, -161.05105590820312, 9.784417152404785, -0.6760922074317932, -1.9163775444030762, 1.845506191253662, -14.056697845458984, -0.462272971868515, 
438, 479147570, -147.37496948242188, -79.08248901367188, -160.63037109375, 9.734560012817383, -0.6650087833404541, -1.879145622253418, 1.7541146278381348, -14.87353801727295, -0.30459174513816833, 
439, 479155903, -147.7671661376953, -78.97866821289062, -160.22225952148438, 9.7819185256958, -0.6536945700645447, -1.8338638544082642, 1.7148733139038086, -15.686685562133789, -0.37597858905792236, 
440, 479164236, -148.23072814941406, -78.88929748535156, -159.76779174804688, 9.787181854248047, -0.6465948224067688, -1.8373959064483643, 1.600915789604187, -16.390539169311523, -0.6029720902442932, 
441, 479172569, -148.64724731445312, -78.7767562866211, -159.33575439453125, 9.743316650390625, -0.6563135981559753, -1.8324196338653564, 1.5948705673217773, -16.933509826660156, -0.6790207028388977, 
442, 479180902, -149.1271209716797, -78.67726135253906, -158.864990234375, 9.72761344909668, -0.6571202874183655, -1.8583767414093018, 1.5959720611572266, -17.652271270751953, -0.7129083275794983, 
443, 479189235, -149.5545196533203, -78.55393981933594, -158.4220733642578, 9.74504280090332, -0.6527789831161499, -1.8193587064743042, 1.5355993509292603, -18.2583065032959, -0.6619616746902466, 
444, 479197568, -150.04635620117188, -78.4451904296875, -157.93980407714844, 9.755586624145508, -0.6434887051582336, -1.796926736831665, 1.4236396551132202, -18.771385192871094, -0.8390329480171204, 
445, 479205901, -150.49107360839844, -78.31222534179688, -157.48033142089844, 9.818731307983398, -0.6683147549629211, -1.7883328199386597, 1.3790452480316162, -19.5377140045166, -0.9185652732849121, 
446, 479214234, -150.98167419433594, -78.19422149658203, -157.00123596191406, 9.82866096496582, -0.666700541973114, -1.7794674634933472, 1.4162371158599854, -19.7568416595459, -0.7856271862983704, 
447, 479222567, -151.40481567382812, -78.05470275878906, -156.5632781982422, 9.854609489440918, -0.6491401791572571, -1.7596125602722168, 1.3984609842300415, -20.063316345214844, -0.5891916751861572, 
448, 479230900, -151.88487243652344, -77.93059539794922, -156.0940704345703, 9.813307762145996, -0.6477420926094055, -1.750231385231018, 1.3843984603881836, -20.324554443359375, -0.7318629622459412, 
449, 479239233, -152.31248474121094, -77.78556823730469, -155.65281677246094, 9.819113731384277, -0.6534113883972168, -1.752272367477417, 1.2087618112564087, -20.77672576904297, -0.8766603469848633, 
450, 479247566, -152.79112243652344, -77.65560150146484, -155.1861114501953, 9.825145721435547, -0.6671262979507446, -1.7122102975845337, 1.234068512916565, -20.987783432006836, -0.8976894021034241, 
451, 479255899, -153.20614624023438, -77.50418853759766, -154.75733947753906, 9.816696166992188, -0.6727399230003357, -1.7016793489456177, 1.2100682258605957, -21.399921417236328, -0.7858067154884338, 
452, 479264232, -153.6637725830078, -77.36766052246094, -154.3125, 9.828205108642578, -0.6870973706245422, -1.6810810565948486, 1.2370400428771973, -21.508346557617188, -0.619288444519043, 
453, 479272565, -154.06065368652344, -77.21443939208984, -153.9010009765625, 9.836369514465332, -0.6930849552154541, -1.6118344068527222, 1.3185189962387085, -21.485937118530273, -0.8228961229324341, 
454, 479280898, -154.50863647460938, -77.0765380859375, -153.46539306640625, 9.889164924621582, -0.6985682845115662, -1.6008740663528442, 1.2403185367584229, -21.626375198364258, -0.8787607550621033, 
455, 479289231, -154.8820343017578, -76.92302703857422, -153.0780029296875, 9.937289237976074, -0.7027183175086975, -1.5210728645324707, 1.2696982622146606, -21.322824478149414, -0.7454898953437805, 
456, 479297564, -155.29185485839844, -76.78498840332031, -152.681640625, 9.923046112060547, -0.7261292338371277, -1.5165152549743652, 1.2361947298049927, -21.283016204833984, -0.4525653123855591, 
457, 479305897, -155.63287353515625, -76.63291931152344, -152.32684326171875, 9.899426460266113, -0.7049973011016846, -1.5518320798873901, 1.3133832216262817, -20.85995864868164, -0.4926387667655945, 
458, 479314230, -156.0175323486328, -76.49868774414062, -151.9552764892578, 9.85726547241211, -0.6917755603790283, -1.4939250946044922, 1.309118390083313, -20.677005767822266, -0.5033838748931885, 
459, 479322563, -156.33949279785156, -76.34896087646484, -151.62025451660156, 9.887490272521973, -0.719419002532959, -1.4861315488815308, 1.2394477128982544, -20.45900535583496, -0.5308424234390259, 
460, 479330896, -156.6979217529297, -76.2181396484375, -151.27626037597656, 9.900429725646973, -0.7230860590934753, -1.4573384523391724, 1.2742575407028198, -20.083322525024414, -0.41716644167900085, 
461, 479339229, -156.98719787597656, -76.07176208496094, -150.97323608398438, 9.87513256072998, -0.7056205868721008, -1.4898731708526611, 1.3986400365829468, -19.792497634887695, -0.24977727234363556, 
462, 479347562, -157.31744384765625, -75.94563293457031, -150.65684509277344, 9.863192558288574, -0.6868566274642944, -1.4480679035186768, 1.3550190925598145, -19.340173721313477, -0.30010929703712463, 
463, 479355895, -157.58566284179688, -75.80545043945312, -150.37551879882812, 9.903190612792969, -0.7175577878952026, -1.4404042959213257, 1.3744343519210815, -18.908777236938477, -0.30912545323371887, 
464, 479364228, -157.8870391845703, -75.68600463867188, -150.08631896972656, 9.95802116394043, -0.7305760979652405, -1.4237828254699707, 1.503222942352295, -18.377565383911133, -0.19516770541667938, 
465, 479372561, -158.11671447753906, -75.5540542602539, -149.84263610839844, 9.923996925354004, -0.7294322848320007, -1.4065312147140503, 1.5907212495803833, -17.62360954284668, 0.05058812350034714, 
466, 479380894, -158.38101196289062, -75.4430160522461, -149.59243774414062, 9.913814544677734, -0.7059404850006104, -1.4170711040496826, 1.6582914590835571, -17.12205696105957, 0.14446429908275604, 
467, 479389227, -158.5868377685547, -75.31854248046875, -149.37294006347656, 9.923943519592285, -0.7021996974945068, -1.381162166595459, 1.6237126588821411, -16.561901092529297, 0.1500994712114334, 
468, 479397560, -158.8247528076172, -75.2176513671875, -149.1491241455078, 9.90028190612793, -0.7055646777153015, -1.351486325263977, 1.6868259906768799, -15.781639099121094, 0.20686061680316925, 
469, 479405893, -159.00283813476562, -75.1039810180664, -148.95651245117188, 9.888574600219727, -0.6985422372817993, -1.348012089729309, 1.815511703491211, -15.091052055358887, 0.24528196454048157, 
470, 479414226, -159.2076416015625, -75.01341247558594, -148.7651824951172, 9.914921760559082, -0.7015781998634338, -1.3448431491851807, 1.846760869026184, -14.360481262207031, 0.497735857963562, 
471, 479422559, -159.35459899902344, -74.91105651855469, -148.60333251953125, 9.923139572143555, -0.7015932202339172, -1.2946791648864746, 1.9736027717590332, -13.510039329528809, 0.4993239641189575, 
472, 479430892, -159.537109375, -74.83318328857422, -148.43423461914062, 9.924360275268555, -0.6937317848205566, -1.2969856262207031, 1.9682494401931763, -12.790353775024414, 0.44053927063941956, 
473, 479439225, -159.65975952148438, -74.74362182617188, -148.2962646484375, 9.938799858093262, -0.7076985836029053, -1.3003861904144287, 2.125520706176758, -11.826696395874023, 0.5390516519546509, 
474, 479447558, -159.80503845214844, -74.68108367919922, -148.16461181640625, 9.95100212097168, -0.7032226324081421, -1.2587083578109741, 2.1321804523468018, -10.752896308898926, 0.777725100517273, 
475, 479455891, -159.89132690429688, -74.60653686523438, -148.06271362304688, 9.920930862426758, -0.7204672694206238, -1.2655879259109497, 2.309943199157715, -9.757858276367188, 0.9109957814216614, 
476, 479464224, -160.0083770751953, -74.5587387084961, -147.95840454101562, 9.896385192871094, -0.6892032027244568, -1.2701891660690308, 2.268934965133667, -8.88070011138916, 0.9242897033691406, 
477, 479472557, -160.07510375976562, -74.4983901977539, -147.87680053710938, 9.879471778869629, -0.6843187808990479, -1.2723864316940308, 2.317908763885498, -7.944100856781006, 0.8840752840042114, 
478, 479480890, -160.1672821044922, -74.46504211425781, -147.7975311279297, 9.91479778289795, -0.7060338258743286, -1.2882540225982666, 2.4921629428863525, -7.082733154296875, 0.9974184036254883, 
479, 479489223, -160.2055206298828, -74.4181900024414, -147.74290466308594, 9.918798446655273, -0.7100700736045837, -1.2356218099594116, 2.620182514190674, -6.139052867889404, 1.1255918741226196, 
480, 479497556, -160.26788330078125, -74.40042877197266, -147.6934051513672, 9.899091720581055, -0.6833372116088867, -1.2268986701965332, 2.6151626110076904, -5.083081245422363, 1.2299699783325195, 
481, 479505889, -160.28414916992188, -74.37034606933594, -147.6610107421875, 9.926258087158203, -0.668756902217865, -1.2620058059692383, 2.6971278190612793, -4.013533115386963, 1.1105564832687378, 
482, 479514222, -160.31814575195312, -74.37030029296875, -147.63973999023438, 9.913579940795898, -0.6871942281723022, -1.2227213382720947, 2.7351131439208984, -2.8642220497131348, 1.3594242334365845, 
483, 479522555, -160.30117797851562, -74.35596466064453, -147.6397705078125, 9.922399520874023, -0.7214953899383545, -1.2393449544906616, 2.9406166076660156, -1.8890881538391113, 1.4613176584243774, 
484, 479530888, -160.30548095703125, -74.372314453125, -147.6479034423828, 9.928528785705566, -0.6918018460273743, -1.2556878328323364, 3.0189194679260254, -0.7844488024711609, 1.5473047494888306, 
485, 479539221, -160.261962890625, -74.3746566772461, -147.6747589111328, 9.903422355651855, -0.6948760151863098, -1.2455748319625854, 3.036977767944336, 0.27937451004981995, 1.6040147542953491, 
486, 479547554, -160.24270629882812, -74.406982421875, -147.70657348632812, 9.886734008789062, -0.6793630719184875, -1.2596104145050049, 3.1071090698242188, 1.1938024759292603, 1.6060380935668945, 
487, 479555887, -160.1732177734375, -74.42485809326172, -147.7587890625, 9.88394546508789, -0.7058869004249573, -1.2703237533569336, 3.233182668685913, 2.3024637699127197, 1.7430744171142578, 
488, 479564220, -160.12521362304688, -74.47246551513672, -147.81976318359375, 9.906257629394531, -0.6954228281974792, -1.2580864429473877, 3.2625110149383545, 3.144301414489746, 1.827165961265564, 
489, 479572553, -160.03030395507812, -74.5050048828125, -147.8973846435547, 9.915414810180664, -0.6797338724136353, -1.27412748336792, 3.3536462783813477, 4.227501392364502, 1.9004480838775635, 
490, 479580886, -159.9515380859375, -74.5693130493164, -147.98777770996094, 9.908164978027344, -0.6887273788452148, -1.2687172889709473, 3.524415969848633, 5.27911901473999, 1.9962197542190552, 
491, 479589219, -159.82676696777344, -74.61751556396484, -148.0945587158203, 9.90941333770752, -0.6819456219673157, -1.2642576694488525, 3.565988540649414, 6.302433967590332, 2.097729206085205, 
492, 479597552, -159.72132873535156, -74.69692993164062, -148.21084594726562, 9.924947738647461, -0.6946131587028503, -1.291494607925415, 3.662937879562378, 7.178389072418213, 2.104952096939087, 
493, 479605885, -159.56983947753906, -74.75952911376953, -148.343994140625, 9.930347442626953, -0.7015379667282104, -1.2929298877716064, 3.7192130088806152, 8.198477745056152, 2.2272095680236816, 
494, 479614218, -159.43093872070312, -74.85371398925781, -148.4951629638672, 9.895122528076172, -0.695429265499115, -1.2860697507858276, 3.7892682552337646, 9.120128631591797, 2.3906538486480713, 
495, 479622551, -159.2537078857422, -74.92977905273438, -148.65399169921875, 9.887117385864258, -0.7014017701148987, -1.2743110656738281, 3.8371150493621826, 9.981278419494629, 2.323723554611206, 
496, 479630884, -159.09263610839844, -75.03778076171875, -148.82594299316406, 9.917618751525879, -0.7001625299453735, -1.2946968078613281, 3.9675941467285156, 10.822732925415039, 2.2996463775634766, 
497, 479639217, -158.89059448242188, -75.12557220458984, -149.0091094970703, 9.923184394836426, -0.7169183492660522, -1.3344306945800781, 3.982732057571411, 11.543107986450195, 2.40279483795166, 
498, 479647550, -158.70089721679688, -75.24508666992188, -149.20965576171875, 9.925872802734375, -0.7059558033943176, -1.3237779140472412, 4.039313793182373, 12.35851001739502, 2.467214584350586, 
499, 479655883, -158.46949768066406, -75.34475708007812, -149.4215545654297, 9.929085731506348, -0.6920439600944519, -1.382382869720459, 4.155821323394775, 13.16158390045166, 2.543558120727539, 
500, 479664216, -158.24896240234375, -75.47633361816406, -149.6534423828125, 9.897880554199219, -0.6885048151016235, -1.4024500846862793, 4.175454139709473, 13.955151557922363, 2.5935189723968506, 
501, 479672549, -157.98623657226562, -75.58538818359375, -149.8965606689453, 9.895784378051758, -0.7319591641426086, -1.404665231704712, 4.277859687805176, 14.528780937194824, 2.7880072593688965, 
502, 479680882, -157.73912048339844, -75.72575378417969, -150.1551055908203, 9.920933723449707, -0.6917647123336792, -1.4022570848464966, 4.267076015472412, 15.137118339538574, 2.675945281982422, 
503, 479689215, -157.45437622070312, -75.84236145019531, -150.42007446289062, 9.89968204498291, -0.6891677379608154, -1.4450161457061768, 4.353473663330078, 15.571972846984863, 2.790543556213379, 
504, 479697548, -157.17872619628906, -75.98876190185547, -150.70599365234375, 9.892303466796875, -0.6958635449409485, -1.4658843278884888, 4.327986240386963, 16.044143676757812, 2.8771960735321045, 
505, 479705881, -156.86940002441406, -76.11309051513672, -150.9958038330078, 9.894308090209961, -0.7026606798171997, -1.4582666158676147, 4.388001441955566, 16.666444778442383, 2.7969729900360107, 
506, 479714214, -156.56797790527344, -76.26731872558594, -151.3073272705078, 9.88725471496582, -0.69306480884552, -1.4716254472732544, 4.390434741973877, 17.118074417114258, 2.8417718410491943, 
507, 479722547, -156.2311553955078, -76.39566802978516, -151.62457275390625, 9.910920143127441, -0.7086684107780457, -1.4944326877593994, 4.446427345275879, 17.35459327697754, 2.9895148277282715, 
508, 479730880, -155.9002227783203, -76.55403137207031, -151.96649169921875, 9.888853073120117, -0.6781097650527954, -1.484169840812683, 4.503060340881348, 17.815242767333984, 2.9999654293060303, 
509, 479739213, -155.53465270996094, -76.68682098388672, -152.31187438964844, 9.876341819763184, -0.6914211511611938, -1.5057648420333862, 4.584463119506836, 18.109655380249023, 3.0975563526153564, 
510, 479747546, -155.17745971679688, -76.8486557006836, -152.67967224121094, 9.896415710449219, -0.696027398109436, -1.5200397968292236, 4.539509296417236, 18.407264709472656, 3.0484018325805664, 
511, 479755879, -154.792236328125, -76.98394775390625, -153.04457092285156, 9.870402336120605, -0.700683057308197, -1.5400855541229248, 4.617863655090332, 18.533493041992188, 3.0297293663024902, 
512, 479764212, -154.41041564941406, -77.14678955078125, -153.43617248535156, 9.899389266967773, -0.6872936487197876, -1.5618274211883545, 4.601983547210693, 18.710899353027344, 3.110363483428955, 
513, 479772545, -153.9988555908203, -77.28348541259766, -153.82810974121094, 9.877126693725586, -0.6885550618171692, -1.5976791381835938, 4.56968355178833, 18.91742515563965, 3.1500909328460693, 
514, 479780878, -153.59873962402344, -77.44651794433594, -154.2395477294922, 9.860616683959961, -0.681458592414856, -1.652729868888855, 4.577136993408203, 18.850133895874023, 3.0314455032348633, 
515, 479789211, -153.17970275878906, -77.58138275146484, -154.6395721435547, 9.848592758178711, -0.6716004014015198, -1.703119158744812, 4.484516620635986, 18.73446273803711, 2.9454843997955322, 
516, 479797544, -152.76373291015625, -77.74143981933594, -155.064453125, 9.847945213317871, -0.6800832748413086, -1.7068284749984741, 4.589022159576416, 18.62337303161621, 3.0279366970062256, 
517, 479805877, -152.32736206054688, -77.87212371826172, -155.48135375976562, 9.826766014099121, -0.6680079102516174, -1.7184447050094604, 4.539023399353027, 18.397737503051758, 3.0640270709991455, 
518, 479814210, -151.89801025390625, -78.02680969238281, -155.9220733642578, 9.809992790222168, -0.644605278968811, -1.744434118270874, 4.4501800537109375, 18.148855209350586, 3.1134238243103027, 
519, 479822543, -151.46170043945312, -78.1522445678711, -156.33877563476562, 9.82422161102295, -0.6306819319725037, -1.753443956375122, 4.5079522132873535, 17.74761962890625, 2.8653881549835205, 
520, 479830876, -151.03564453125, -78.30056762695312, -156.7755126953125, 9.804845809936523, -0.6668800711631775, -1.7556096315383911, 4.406981945037842, 17.34950065612793, 2.889030694961548, 
521, 479839209, -150.59332275390625, -78.41898345947266, -157.1996612548828, 9.814658164978027, -0.6809276938438416, -1.7740041017532349, 4.323837757110596, 17.013517379760742, 2.9563701152801514, 
522, 479847542, -150.160888671875, -78.5610122680664, -157.64315795898438, 9.784629821777344, -0.6464574933052063, -1.7932353019714355, 4.3769354820251465, 16.709190368652344, 2.8892602920532227, 
523, 479855875, -149.72683715820312, -78.67256164550781, -158.0589599609375, 9.767796516418457, -0.6543108224868774, -1.7961397171020508, 4.26735782623291, 16.105541229248047, 2.7449755668640137, 
524, 479864208, -149.3124237060547, -78.80498504638672, -158.484130859375, 9.792135238647461, -0.652219295501709, -1.8001114130020142, 4.159778118133545, 15.463162422180176, 2.651381254196167, 
525, 479872541, -148.89181518554688, -78.9079360961914, -158.88687133789062, 9.765983581542969, -0.6569365859031677, -1.8204996585845947, 4.164977550506592, 14.97744083404541, 2.5978472232818604, 
526, 479880874, -148.48550415039062, -79.03189086914062, -159.30401611328125, 9.761005401611328, -0.6520206332206726, -1.833252191543579, 4.121638298034668, 14.434008598327637, 2.5978217124938965, 
527, 479889207, -148.08363342285156, -79.12531280517578, -159.68850708007812, 9.751649856567383, -0.6537113785743713, -1.8527992963790894, 4.032321453094482, 13.704615592956543, 2.4728751182556152, 
528, 479897540, -147.70001220703125, -79.23897552490234, -160.0832061767578, 9.760575294494629, -0.6561145186424255, -1.8697949647903442, 3.934040069580078, 13.096510887145996, 2.4495413303375244, 
529, 479905873, -147.32179260253906, -79.32289123535156, -160.44471740722656, 9.728738784790039, -0.6608180999755859, -1.9049501419067383, 3.8816072940826416, 12.389607429504395, 2.333303451538086, 
530, 479914206, -146.96827697753906, -79.42420959472656, -160.81045532226562, 9.721678733825684, -0.6348937749862671, -1.9229015111923218, 3.838190793991089, 11.46534252166748, 2.368189811706543, 
531, 479922539, -146.62364196777344, -79.49502563476562, -161.13804626464844, 9.700430870056152, -0.6424880027770996, -1.9450979232788086, 3.8448500633239746, 10.610696792602539, 2.2972893714904785, 
532, 479930872, -146.30868530273438, -79.58419799804688, -161.46495056152344, 9.69665241241455, -0.6361979842185974, -1.9367566108703613, 3.7349655628204346, 9.78133487701416, 2.2141201496124268, 
533, 479939205, -146.01036071777344, -79.64415740966797, -161.7467041015625, 9.693962097167969, -0.6179183125495911, -1.9661080837249756, 3.687732219696045, 8.93076229095459, 1.989508867263794, 
534, 479947538, -145.7471466064453, -79.72162628173828, -162.02145385742188, 9.705751419067383, -0.6373544931411743, -1.9445812702178955, 3.514375686645508, 8.027219772338867, 1.897271990776062, 
535, 479955871, -145.49761962890625, -79.76807403564453, -162.2550048828125, 9.698421478271484, -0.6226364970207214, -1.9474347829818726, 3.5069477558135986, 6.961898326873779, 1.9131019115447998, 
536, 479964204, -145.28530883789062, -79.83229064941406, -162.47921752929688, 9.692519187927246, -0.6294496655464172, -1.9463921785354614, 3.4519283771514893, 6.129128456115723, 1.7677409648895264, 
537, 479972537, -145.091064453125, -79.86713409423828, -162.65835571289062, 9.648360252380371, -0.6110519170761108, -1.9596229791641235, 3.308513879776001, 5.143056392669678, 1.6606987714767456, 
538, 479980870, -144.9409942626953, -79.91788482666016, -162.81991577148438, 9.665220260620117, -0.6449402570724487, -1.972078561782837, 3.20751690864563, 4.112083435058594, 1.5541435480117798, 
539, 479989203, -144.8086395263672, -79.93950653076172, -162.9376220703125, 9.696940422058105, -0.6536593437194824, -1.9692802429199219, 3.1289072036743164, 3.0704808235168457, 1.4786841869354248, 
540, 479997536, -144.7218475341797, -79.97677612304688, -163.0374298095703, 9.654226303100586, -0.6501844525337219, -1.9870401620864868, 3.008622407913208, 2.0967042446136475, 1.3738963603973389, 
541, 480005869, -144.65394592285156, -79.9853744506836, -163.0908966064453, 9.672279357910156, -0.6371321678161621, -1.960504174232483, 3.0039610862731934, 1.0173975229263306, 1.2620391845703125, 
542, 480014202, -144.63343811035156, -80.00861358642578, -163.12388610839844, 9.668389320373535, -0.6435239315032959, -1.9679794311523438, 2.9106991291046143, -0.010002359747886658, 1.2036898136138916, 
543, 480022535, -144.6328125, -80.00366973876953, -163.11073303222656, 9.675976753234863, -0.6262685656547546, -2.0168023109436035, 2.8121867179870605, -1.1096726655960083, 1.064988613128662, 
544, 480030868, -144.6798553466797, -80.013671875, -163.0755615234375, 9.671854972839355, -0.6415801048278809, -1.9662114381790161, 2.8249685764312744, -2.059269428253174, 0.9811277389526367, 
545, 480039201, -144.7400360107422, -79.99637603759766, -163.00234985351562, 9.670915603637695, -0.6451503038406372, -1.975071907043457, 2.6121907234191895, -3.058044910430908, 0.9084855914115906, 
546, 480047534, -144.85301208496094, -79.99223327636719, -162.90386962890625, 9.675360679626465, -0.6266524791717529, -1.9715656042099, 2.5626018047332764, -4.135354518890381, 0.8521344065666199, 
547, 480055867, -144.9752655029297, -79.96208953857422, -162.7695770263672, 9.67750358581543, -0.6293932199478149, -1.9799715280532837, 2.4001307487487793, -5.049577236175537, 0.7333356142044067, 
548, 480064200, -145.15460205078125, -79.9448013305664, -162.60470581054688, 9.676709175109863, -0.6396214365959167, -1.9684706926345825, 2.347672700881958, -6.1522440910339355, 0.6177641153335571, 
549, 480072533, -145.33883666992188, -79.90090942382812, -162.40850830078125, 9.678893089294434, -0.636145293712616, -1.9711930751800537, 2.2802305221557617, -7.158295154571533, 0.5700704455375671, 
550, 480080866, -145.58441162109375, -79.869384765625, -162.17770385742188, 9.675793647766113, -0.6446012258529663, -1.9574530124664307, 2.206563949584961, -8.290342330932617, 0.3957655727863312, 
551, 480089199, -145.8275909423828, -79.81256103515625, -161.9235382080078, 9.67945384979248, -0.6366075873374939, -1.938136339187622, 2.0604350566864014, -9.1488037109375, 0.3490964472293854, 
552, 480097532, -146.12982177734375, -79.76835632324219, -161.6351776123047, 9.683640480041504, -0.6413496136665344, -1.9260234832763672, 2.035973072052002, -10.152241706848145, 0.1513289213180542, 
553, 480105865, -146.42080688476562, -79.69886016845703, -161.33338928222656, 9.69494342803955, -0.647064208984375, -1.954876184463501, 1.9386646747589111, -11.010704040527344, 0.21910418570041656, 
554, 480114198, -146.7654571533203, -79.64186096191406, -161.00375366210938, 9.702282905578613, -0.6323648691177368, -1.9505174160003662, 1.9499095678329468, -11.90046501159668, 0.08711402863264084, 
555, 480122531, -147.10296630859375, -79.5608139038086, -160.6547088623047, 9.695521354675293, -0.6482606530189514, -1.9242918491363525, 1.9310060739517212, -12.762691497802734, -0.07431971281766891, 
556, 480130864, -147.49386596679688, -79.4926986694336, -160.28033447265625, 9.726577758789062, -0.633577287197113, -1.8849036693572998, 1.6526563167572021, -13.522972106933594, -0.21814365684986115, 
557, 480139197, -147.87002563476562, -79.39852905273438, -159.89320373535156, 9.73924446105957, -0.6531723737716675, -1.9152661561965942, 1.7677664756774902, -14.597975730895996, -0.18863604962825775, 
558, 480147530, -148.2941436767578, -79.31656646728516, -159.4857177734375, 9.747984886169434, -0.6567423343658447, -1.8849506378173828, 1.5990201234817505, -15.30078125, -0.25185200572013855, 
559, 480155863, -148.69729614257812, -79.21172332763672, -159.07247924804688, 9.761984825134277, -0.6249741315841675, -1.8494200706481934, 1.5881340503692627, -16.056835174560547, -0.33786463737487793, 
560, 480164196, -149.14727783203125, -79.1197509765625, -158.6388702392578, 9.779146194458008, -0.671879231929779, -1.8484489917755127, 1.5340622663497925, -16.631080627441406, -0.4803822636604309, 
561, 480172529, -149.56784057617188, -79.00541687011719, -158.20846557617188, 9.76707935333252, -0.6596691012382507, -1.835457682609558, 1.4923114776611328, -17.304689407348633, -0.4715966582298279, 
562, 480180862, -150.03311157226562, -78.90360260009766, -157.76026916503906, 9.765296936035156, -0.6585491895675659, -1.80381441116333, 1.4288394451141357, -17.8466854095459, -0.5827624201774597, 
563, 480189195, -150.465087890625, -78.78128051757812, -157.31961059570312, 9.787851333618164, -0.670305609703064, -1.7859121561050415, 1.3012803792953491, -18.331640243530273, -0.6303793787956238, 
564, 480197528, -150.9389190673828, -78.67073059082031, -156.86370849609375, 9.780290603637695, -0.6452857255935669, -1.7918753623962402, 1.3217718601226807, -18.869848251342773, -0.6916999220848083, 
565, 480205861, -151.37445068359375, -78.54070281982422, -156.41986083984375, 9.794105529785156, -0.6533508896827698, -1.7721173763275146, 1.215882420539856, -19.259077072143555, -0.7179543972015381, 
566, 480214194, -151.85000610351562, -78.42198944091797, -155.96202087402344, 9.780571937561035, -0.6631677746772766, -1.7400670051574707, 1.295414686203003, -19.79185676574707, -0.7527385354042053, 
567, 480222527, -152.2810821533203, -78.28408813476562, -155.52249145507812, 9.79920768737793, -0.6638112664222717, -1.7729917764663696, 1.2043561935424805, -20.12676429748535, -0.6813260912895203, 
568, 480230860, -152.75135803222656, -78.15866088867188, -155.06942749023438, 9.803373336791992, -0.6475316286087036, -1.7306714057922363, 1.262090802192688, -20.495174407958984, -0.784090518951416, 
569, 480239193, -153.1800994873047, -78.01564025878906, -154.63156127929688, 9.829195022583008, -0.6440153121948242, -1.7246838808059692, 1.2410356998443604, -20.742067337036133, -0.8820136785507202, 
570, 480247526, -153.6471405029297, -77.88581085205078, -154.18589782714844, 9.844200134277344, -0.6741557121276855, -1.7287770509719849, 1.0985180139541626, -20.96609115600586, -0.9846756458282471, 
571, 480255859, -154.0653076171875, -77.7389907836914, -153.75975036621094, 9.853660583496094, -0.6694515943527222, -1.6811851263046265, 1.0977497100830078, -21.093751907348633, -0.9539384841918945, 
572, 480264192, -154.52215576171875, -77.6039810180664, -153.32373046875, 9.846260070800781, -0.6815096735954285, -1.6532191038131714, 0.9762101173400879, -21.475893020629883, -1.0020933151245117, 
573, 480272525, -154.92584228515625, -77.4535903930664, -152.9129180908203, 9.905871391296387, -0.6914109587669373, -1.5817091464996338, 1.0007743835449219, -21.389625549316406, -0.9443333148956299, 
574, 480280858, -155.35557556152344, -77.31929779052734, -152.5018310546875, 9.905128479003906, -0.706156313419342, -1.540299654006958, 1.075490951538086, -21.164295196533203, -0.9603164792060852, 
575, 480289191, -155.73287963867188, -77.17115783691406, -152.11758422851562, 9.882266998291016, -0.6980534195899963, -1.5783865451812744, 1.001542568206787, -20.927669525146484, -0.9251224398612976, 
576, 480297524, -156.13558959960938, -77.03775024414062, -151.7366485595703, 9.878997802734375, -0.7094303965568542, -1.5313252210617065, 0.9919627904891968, -20.823165893554688, -0.8257391452789307, 
577, 480305857, -156.4892120361328, -76.88990783691406, -151.37608337402344, 9.872696876525879, -0.6804728507995605, -1.5414347648620605, 1.0291802883148193, -20.700420379638672, -0.827967643737793, 
578, 480314190, -156.86477661132812, -76.75919342041016, -151.02113342285156, 9.91380786895752, -0.7081425786018372, -1.5068176984786987, 1.0905005931854248, -20.30475616455078, -0.7581431269645691, 
579, 480322523, -157.19107055664062, -76.61611938476562, -150.6870880126953, 9.868351936340332, -0.705706775188446, -1.490768551826477, 1.1766927242279053, -19.94587516784668, -0.8139566779136658, 
580, 480330856, -157.54315185546875, -76.48926544189453, -150.3554229736328, 9.903056144714355, -0.6932602524757385, -1.47819185256958, 1.1889106035232544, -19.70090103149414, -0.7747412323951721, 
581, 480339189, -157.84136962890625, -76.34981536865234, -150.049072265625, 9.914050102233887, -0.7136106491088867, -1.473716378211975, 1.2807633876800537, -19.295886993408203, -0.6483349800109863, 
582, 480347522, -158.1636199951172, -76.22905731201172, -149.7470703125, 9.916470527648926, -0.7154809832572937, -1.4366024732589722, 1.2251547574996948, -18.764726638793945, -0.6461064219474792, 
583, 480355855, -158.43621826171875, -76.0969467163086, -149.46742248535156, 9.904650688171387, -0.7224523425102234, -1.414704442024231, 1.21355140209198, -18.237682342529297, -0.6106306314468384, 
584, 480364188, -158.73060607910156, -75.9830551147461, -149.1940155029297, 9.897968292236328, -0.7124269008636475, -1.4199957847595215, 1.39320969581604, -17.784133911132812, -0.5580190420150757, 
585, 480372521, -158.97666931152344, -75.85810089111328, -148.9401397705078, 9.89441204071045, -0.7027701139450073, -1.388405442237854, 1.3722317218780518, -17.202587127685547, -0.5143979787826538, 
586, 480380854, -159.243408203125, -75.75284576416016, -148.69468688964844, 9.893428802490234, -0.7174333333969116, -1.3898720741271973, 1.439110517501831, -16.587873458862305, -0.45615124702453613, 
587, 480389187, -159.46246337890625, -75.63705444335938, -148.4684600830078, 9.92392349243164, -0.6780640482902527, -1.3641318082809448, 1.3710534572601318, -15.92428207397461, -0.38286885619163513, 
588, 480397520, -159.70199584960938, -75.54249572753906, -148.24916076660156, 9.915238380432129, -0.6960851550102234, -1.3278536796569824, 1.535957932472229, -15.161669731140137, -0.3952917456626892, 
589, 480405853, -159.8920135498047, -75.43779754638672, -148.05076599121094, 9.932965278625488, -0.694080114364624, -1.3080908060073853, 1.6081129312515259, -14.406689643859863, -0.26494088768959045, 
590, 480414186, -160.0995635986328, -75.35472106933594, -147.86349487304688, 9.932072639465332, -0.7023223638534546, -1.301485300064087, 1.6901556253433228, -13.602096557617188, -0.17150016129016876, 
591, 480422519, -160.26556396484375, -75.2614517211914, -147.68946838378906, 9.928084373474121, -0.6857869625091553, -1.294194221496582, 1.652989387512207, -12.885205268859863, -0.19322101771831512, 
592, 480430852, -160.4477081298828, -75.1916275024414, -147.52638244628906, 9.908753395080566, -0.7030150890350342, -1.2807163000106812, 1.896862268447876, -11.92026424407959, -0.15789897739887238, 
593, 480439185, -160.580322265625, -75.11199951171875, -147.38421630859375, 9.905206680297852, -0.7114591002464294, -1.285104513168335, 1.9571329355239868, -11.030272483825684, 0.06078258156776428, 
594, 480447518, -160.73260498046875, -75.05571746826172, -147.25306701660156, 9.913622856140137, -0.6945025324821472, -1.2679847478866577, 1.9445303678512573, -10.137205123901367, 0.07412759959697723, 
595, 480455851, -160.8393096923828, -74.99054718017578, -147.1368865966797, 9.92268180847168, -0.7022210955619812, -1.277528166770935, 2.0498178005218506, -9.140466690063477, 0.16829834878444672, 
596, 480464184, -160.96278381347656, -74.94951629638672, -147.033935546875, 9.894608497619629, -0.682709813117981, -1.2420552968978882, 2.1538498401641846, -8.189216613769531, 0.21674765646457672, 
597, 480472517, -161.04171752929688, -74.898681640625, -146.9452362060547, 9.897960662841797, -0.7045736312866211, -1.2593094110488892, 2.200493335723877, -7.2376484870910645, 0.36433687806129456, 
598, 480480850, -161.1333465576172, -74.87307739257812, -146.87403869628906, 9.90607738494873, -0.7065695524215698, -1.2489460706710815, 2.3249785900115967, -6.1736578941345215, 0.49417540431022644, 
599, 480489183, -161.1875, -74.8379898071289, -146.8101348876953, 9.912786483764648, -0.7033616900444031, -1.2743186950683594, 2.3034369945526123, -5.209230899810791, 0.46300289034843445, 
600, 480497516, -161.25672912597656, -74.8284683227539, -146.76109313964844, 9.916242599487305, -0.6934412121772766, -1.2668876647949219, 2.3853514194488525, -4.173877716064453, 0.5107479095458984, 
601, 480505849, -161.2868194580078, -74.8080062866211, -146.7203369140625, 9.923632621765137, -0.700649619102478, -1.2429401874542236, 2.5209786891937256, -3.3171844482421875, 0.5767045617103577, 
602, 480514182, -161.32789611816406, -74.81414794921875, -146.6974334716797, 9.90752124786377, -0.7174792289733887, -1.2232882976531982, 2.7299907207489014, -2.194589376449585, 0.669556200504303, 
603, 480522515, -161.33265686035156, -74.81039428710938, -146.68186950683594, 9.889721870422363, -0.7151674628257751, -1.2359817028045654, 2.651944160461426, -1.1688414812088013, 0.6827731132507324, 
604, 480530848, -161.34799194335938, -74.83301544189453, -146.68731689453125, 9.916041374206543, -0.6984513998031616, -1.2466590404510498, 2.815004348754883, -0.11263861507177353, 0.7982164025306702, 
605, 480539181, -161.32179260253906, -74.84534454345703, -146.7019805908203, 9.905363082885742, -0.7086003422737122, -1.2515711784362793, 2.8707923889160156, 0.9563587307929993, 0.966322660446167, 
606, 480547514, -161.30921936035156, -74.88358306884766, -146.73338317871094, 9.907554626464844, -0.6936709880828857, -1.2790577411651611, 3.0669972896575928, 1.8731945753097534, 0.9766707420349121, 
