sep=,
PacketCounter,SampleTimeFine,Euler_X,Euler_Y,Euler_Z,Acc_X,Acc_Y,Acc_Z,Gyr_X,Gyr_Y,Gyr_Z,
0, 432268252, -159.63197326660156, -79.08021545410156, -152.26382446289062, 0, 0, 0, 0, 0, 0, 
1, 432276585, -159.359375, -79.14988708496094, -152.50860595703125, 9.753090858459473, -0.6629236340522766, -1.8157851696014404, 3.8706576824188232, 9.780272483825684, 2.264490842819214, 
2, 432284918, -159.25607299804688, -79.13052368164062, -152.59100341796875, 9.737353324890137, -0.6596112251281738, -1.8299498558044434, 3.8814151287078857, 9.191221237182617, 1.9738205671310425, 
3, 432293251, -159.00936889648438, -79.19119262695312, -152.80978393554688, 9.747061729431152, -0.6470508575439453, -1.8316303491592407, 3.8246541023254395, 8.566848754882812, 2.0174927711486816, 
4, 432301584, -158.99705505371094, -79.15315246582031, -152.79913330078125, 9.736947059631348, -0.6603204607963562, -1.8727734088897705, 3.6548309326171875, 7.911404609680176, 2.0310423374176025, 
5, 432309917, -158.78053283691406, -79.20242309570312, -152.9886016845703, 9.726402282714844, -0.6568953990936279, -1.8875255584716797, 3.6548564434051514, 7.060140609741211, 1.8497191667556763, 
6, 432318250, -158.85000610351562, -79.13581848144531, -152.9053497314453, 9.735526084899902, -0.6513845324516296, -1.8869352340698242, 3.6241202354431152, 6.424217700958252, 1.877587914466858, 
7, 432326583, -158.6562042236328, -79.1744613647461, -153.072509765625, 9.71162223815918, -0.62943035364151, -1.8837792873382568, 3.560852289199829, 5.693083763122559, 1.836835265159607, 
8, 432334916, -158.79112243652344, -79.1056137084961, -152.8922882080078, 9.713384628295898, -0.6312815546989441, -1.9034994840621948, 3.337214946746826, 4.779987812042236, 1.7151421308517456, 
9, 432343249, -158.6368865966797, -79.13148498535156, -153.0208282470703, 9.718883514404297, -0.6200701594352722, -1.94137442111969, 3.362905979156494, 3.94993257522583, 1.5856364965438843, 
10, 432351582, -158.8284149169922, -79.05693054199219, -152.8004608154297, 9.7083101272583, -0.6357663869857788, -1.9141488075256348, 3.3671836853027344, 3.162576675415039, 1.469117283821106, 
11, 432359915, -158.70526123046875, -79.07079315185547, -152.8980712890625, 9.687307357788086, -0.6406039595603943, -1.9286972284317017, 3.27028489112854, 2.3496577739715576, 1.4716274738311768, 
12, 432368248, -158.90028381347656, -78.99329376220703, -152.66282653808594, 9.700090408325195, -0.6377282738685608, -1.9017934799194336, 3.084146022796631, 1.4019056558609009, 1.3281621932983398, 
13, 432376581, -158.81443786621094, -78.99430847167969, -152.7233428955078, 9.702364921569824, -0.6443449258804321, -1.9145243167877197, 3.1748206615448, 0.6193138360977173, 1.247426152229309, 
14, 432384914, -158.74514770507812, -78.9885482788086, -152.7685546875, 9.699140548706055, -0.636346697807312, -1.9379311800003052, 2.9892709255218506, -0.26723331212997437, 1.21553635597229, 
15, 432393247, -158.9454345703125, -78.90481567382812, -152.53187561035156, 9.684054374694824, -0.6421908140182495, -1.931523323059082, 3.0810980796813965, -1.1646536588668823, 1.1390266418457031, 
16, 432401580, -159.13760375976562, -78.82294464111328, -152.30227661132812, 9.672377586364746, -0.6553142070770264, -1.9279601573944092, 2.842437267303467, -2.0320284366607666, 0.9921929836273193, 
17, 432409913, -159.1222686767578, -78.79700469970703, -152.29310607910156, 9.687845230102539, -0.6318002939224243, -1.9129289388656616, 2.9159116744995117, -2.9900522232055664, 0.9129810333251953, 
18, 432418246, -159.31439208984375, -78.71128845214844, -152.0731658935547, 9.697988510131836, -0.6377806067466736, -1.9301784038543701, 2.7176706790924072, -3.7751543521881104, 0.8435279726982117, 
19, 432426579, -159.330810546875, -78.67255401611328, -152.03326416015625, 9.70535659790039, -0.6429530382156372, -1.904355764389038, 2.7206928730010986, -4.680591106414795, 0.7653276920318604, 
20, 432434912, -159.5238494873047, -78.5827865600586, -151.8051300048828, 9.700385093688965, -0.6192822456359863, -1.9174778461456299, 2.662407875061035, -5.529601097106934, 0.766800582408905, 
21, 432443245, -159.5748291015625, -78.5315933227539, -151.7308349609375, 9.689350128173828, -0.6555444598197937, -1.9231466054916382, 2.6145858764648438, -6.378763675689697, 0.4931124448776245, 
22, 432451578, -159.7759246826172, -78.43828582763672, -151.49765014648438, 9.70687484741211, -0.6436997056007385, -1.8848822116851807, 2.4842092990875244, -7.073089599609375, 0.5458265542984009, 
23, 432459911, -159.85414123535156, -78.375, -151.3971710205078, 9.71745491027832, -0.644924521446228, -1.8839746713638306, 2.4256041049957275, -7.961134433746338, 0.344831645488739, 
24, 432468244, -160.04942321777344, -78.27751159667969, -151.1828155517578, 9.714494705200195, -0.6604083180427551, -1.8590278625488281, 2.3312668800354004, -8.755766868591309, 0.6021522879600525, 
25, 432476577, -160.14503479003906, -78.20199584960938, -151.0658416748047, 9.701003074645996, -0.6468747854232788, -1.8627547025680542, 2.2778611183166504, -9.483311653137207, 0.39060425758361816, 
26, 432484910, -160.34515380859375, -78.10281372070312, -150.8339385986328, 9.749166488647461, -0.6494278907775879, -1.831766963005066, 2.2764782905578613, -10.195850372314453, 0.24168315529823303, 
27, 432493243, -160.46087646484375, -78.01747131347656, -150.69639587402344, 9.753600120544434, -0.6467411518096924, -1.8448809385299683, 2.2616219520568848, -10.792661666870117, 0.21983419358730316, 
28, 432501576, -160.65966796875, -77.91690063476562, -150.4735107421875, 9.752350807189941, -0.6454510688781738, -1.8419657945632935, 2.0942840576171875, -11.499537467956543, 0.10490311682224274, 
29, 432509909, -160.7971954345703, -77.82168579101562, -150.31590270996094, 9.749021530151367, -0.6476094126701355, -1.838517189025879, 1.9862173795700073, -12.094913482666016, 0.02237403392791748, 
30, 432518242, -160.9955291748047, -77.71829986572266, -150.08782958984375, 9.747461318969727, -0.6460199952125549, -1.8358509540557861, 1.9596045017242432, -12.776895523071289, 0.006390753202140331, 
31, 432526575, -161.14903259277344, -77.61356353759766, -149.91378784179688, 9.745692253112793, -0.658592939376831, -1.8116751909255981, 1.9793790578842163, -13.340409278869629, -0.1398281455039978, 
32, 432534908, -161.34442138671875, -77.5082778930664, -149.69456481933594, 9.791512489318848, -0.6591015458106995, -1.8217921257019043, 1.900794506072998, -13.85958480834961, -0.10932158678770065, 
33, 432543241, -161.50689697265625, -77.39437866210938, -149.51222229003906, 9.767840385437012, -0.6526865363121033, -1.7758846282958984, 1.86293625831604, -14.466434478759766, -0.15176434814929962, 
34, 432551574, -161.7005615234375, -77.28741455078125, -149.2978515625, 9.79349422454834, -0.6489620208740234, -1.7710870504379272, 1.7287436723709106, -14.907796859741211, -0.24279740452766418, 
35, 432559907, -161.87155151367188, -77.1669921875, -149.1069793701172, 9.769474983215332, -0.6398873329162598, -1.7997195720672607, 1.82095468044281, -15.31019401550293, -0.29205355048179626, 
36, 432568240, -162.05856323242188, -77.05937957763672, -148.89659118652344, 9.789629936218262, -0.6537534594535828, -1.7649829387664795, 1.7641167640686035, -15.739513397216797, -0.2798099219799042, 
37, 432576573, -162.23622131347656, -76.9321517944336, -148.69984436035156, 9.789485931396484, -0.6569511294364929, -1.7617868185043335, 1.682151198387146, -16.16153335571289, -0.3739422559738159, 
38, 432584906, -162.41622924804688, -76.82361602783203, -148.50457763671875, 9.776519775390625, -0.6472998261451721, -1.7629425525665283, 1.6587141752243042, -16.533096313476562, -0.3031957447528839, 
39, 432593239, -162.5937957763672, -76.69050598144531, -148.3080291748047, 9.800213813781738, -0.6486881375312805, -1.7558298110961914, 1.652694821357727, -16.859882354736328, -0.3493013381958008, 
40, 432601572, -162.770751953125, -76.58280181884766, -148.1157684326172, 9.818635940551758, -0.6460685729980469, -1.739948034286499, 1.6052318811416626, -17.085674285888672, -0.4713277220726013, 
41, 432609905, -162.94970703125, -76.44651794433594, -147.91806030273438, 9.82453727722168, -0.6558600664138794, -1.71121346950531, 1.5984697341918945, -17.257980346679688, -0.46633288264274597, 
42, 432618238, -163.11495971679688, -76.33992767333984, -147.73846435546875, 9.815564155578613, -0.6676803827285767, -1.6971977949142456, 1.5395822525024414, -17.518165588378906, -0.4073944389820099, 
43, 432626571, -163.29391479492188, -76.20055389404297, -147.54144287109375, 9.829005241394043, -0.6592372059822083, -1.6751750707626343, 1.496857762336731, -17.634353637695312, -0.5384880900382996, 
44, 432634904, -163.45252990722656, -76.09730529785156, -147.37033081054688, 9.85266399383545, -0.6866230964660645, -1.616122841835022, 1.5763388872146606, -17.761634826660156, -0.5891019701957703, 
45, 432643237, -163.6261749267578, -75.95574951171875, -147.17849731445312, 9.861082077026367, -0.6998528838157654, -1.5885761976242065, 1.5035945177078247, -17.87420654296875, -0.5146926045417786, 
46, 432651570, -163.763916015625, -75.85802459716797, -147.0353240966797, 9.883050918579102, -0.6800714135169983, -1.5510919094085693, 1.5251102447509766, -17.69196128845215, -0.4462769031524658, 
47, 432659903, -163.92581176757812, -75.71880340576172, -146.85507202148438, 9.86684513092041, -0.698471188545227, -1.5076041221618652, 1.5470104217529297, -17.531766891479492, -0.44986289739608765, 
48, 432668236, -164.04627990722656, -75.62937927246094, -146.7211456298828, 9.85873794555664, -0.6737719178199768, -1.505338191986084, 1.521550178527832, -17.351728439331055, -0.4462513327598572, 
49, 432676569, -164.2008819580078, -75.49235534667969, -146.5484619140625, 9.854314804077148, -0.7021008133888245, -1.4981242418289185, 1.5247775316238403, -17.237642288208008, -0.4720192849636078, 
50, 432684902, -164.30523681640625, -75.41153717041016, -146.4244842529297, 9.847113609313965, -0.6898523569107056, -1.478538990020752, 1.5607908964157104, -16.898509979248047, -0.4483772814273834, 
51, 432693235, -164.44859313964844, -75.27900695800781, -146.2628173828125, 9.889748573303223, -0.6895703077316284, -1.4936667680740356, 1.571600079536438, -16.651355743408203, -0.44297266006469727, 
52, 432701568, -164.5327606201172, -75.20710754394531, -146.17648315429688, 9.896875381469727, -0.7070226073265076, -1.4843354225158691, 1.7279239892959595, -16.304950714111328, -0.327349990606308, 
53, 432709901, -164.66122436523438, -75.08029174804688, -146.02903747558594, 9.892925262451172, -0.6964473724365234, -1.4468438625335693, 1.7026681900024414, -15.892175674438477, -0.3327801823616028, 
54, 432718234, -164.73106384277344, -75.01769256591797, -145.93975830078125, 9.892459869384766, -0.7050660252571106, -1.44923734664917, 1.7102500200271606, -15.640003204345703, -0.3241994380950928, 
55, 432726567, -164.85020446777344, -74.89661407470703, -145.80178833007812, 9.860018730163574, -0.6766522526741028, -1.4389235973358154, 1.7062283754348755, -15.165011405944824, -0.33746758103370667, 
56, 432734900, -164.90087890625, -74.84516143798828, -145.741943359375, 9.884867668151855, -0.6973777413368225, -1.4816545248031616, 1.7545109987258911, -14.657157897949219, -0.18698391318321228, 
57, 432743233, -165.00216674804688, -74.73141479492188, -145.6220703125, 9.898188591003418, -0.6761570572853088, -1.4448127746582031, 1.7450339794158936, -14.180989265441895, -0.10512083023786545, 
58, 432751566, -165.0363311767578, -74.69074249267578, -145.5792236328125, 9.895585060119629, -0.7011775970458984, -1.4275615215301514, 1.8759740591049194, -13.650289535522461, -0.10368644446134567, 
59, 432759899, -165.1251983642578, -74.58550262451172, -145.47042846679688, 9.8915376663208, -0.6811065673828125, -1.4395341873168945, 1.9481550455093384, -13.114412307739258, -0.0940810963511467, 
60, 432768232, -165.14080810546875, -74.5552978515625, -145.44680786132812, 9.886625289916992, -0.708411693572998, -1.4333114624023438, 1.8886531591415405, -12.61040210723877, 0.10536417365074158, 
61, 432776565, -165.2129669189453, -74.45832824707031, -145.3553924560547, 9.886030197143555, -0.6893686056137085, -1.3961865901947021, 1.9338617324829102, -12.02652359008789, 0.13966162502765656, 
62, 432784898, -165.2124786376953, -74.43974304199219, -145.35096740722656, 9.868631362915039, -0.7040351033210754, -1.3895618915557861, 2.0659289360046387, -11.426406860351562, 0.1705780029296875, 
63, 432793231, -165.27175903320312, -74.3536605834961, -145.27110290527344, 9.901302337646484, -0.6785650849342346, -1.3807477951049805, 2.1369831562042236, -10.679241180419922, 0.13610126078128815, 
64, 432801564, -165.2554931640625, -74.34911346435547, -145.2777099609375, 9.894853591918945, -0.674543559551239, -1.3546313047409058, 2.2209463119506836, -9.940885543823242, 0.18799568712711334, 
65, 432809897, -165.2971954345703, -74.27465057373047, -145.2151641845703, 9.89663314819336, -0.7131340503692627, -1.3401567935943604, 2.243359088897705, -9.194948196411133, 0.3042075037956238, 
66, 432818230, -165.2616729736328, -74.28424072265625, -145.24012756347656, 9.899847030639648, -0.6971409916877747, -1.336621642112732, 2.3073434829711914, -8.381105422973633, 0.3408358693122864, 
67, 432826563, -165.2867889404297, -74.22293853759766, -145.1931915283203, 9.905561447143555, -0.6914461255073547, -1.3009015321731567, 2.421173095703125, -7.553997993469238, 0.393216997385025, 
68, 432834896, -165.23277282714844, -74.24658966064453, -145.2379913330078, 9.903173446655273, -0.6928530931472778, -1.3237026929855347, 2.4438412189483643, -6.814948558807373, 0.4681130051612854, 
69, 432843229, -165.24278259277344, -74.19772338867188, -145.20648193359375, 9.898701667785645, -0.6987071633338928, -1.3028175830841064, 2.455214262008667, -5.989428520202637, 0.4994904100894928, 
70, 432851562, -165.1730499267578, -74.23484802246094, -145.26637268066406, 9.892098426818848, -0.6962409615516663, -1.3104881048202515, 2.585616111755371, -5.290646076202393, 0.5178813934326172, 
71, 432859895, -165.16668701171875, -74.19845581054688, -145.25030517578125, 9.900750160217285, -0.6682204604148865, -1.3135392665863037, 2.642172336578369, -4.413486003875732, 0.6071726083755493, 
72, 432868228, -165.07772827148438, -74.25071716308594, -145.3311004638672, 9.905631065368652, -0.6806034445762634, -1.3155924081802368, 2.72129487991333, -3.501005172729492, 0.6423409581184387, 
73, 432876561, -165.05555725097656, -74.22826385498047, -145.3302459716797, 9.905960083007812, -0.6884027123451233, -1.2846461534500122, 2.775263547897339, -2.686984062194824, 0.6682625412940979, 
74, 432884894, -164.94790649414062, -74.29483795166016, -145.4287109375, 9.88970947265625, -0.7035976648330688, -1.3224185705184937, 2.8744935989379883, -1.7869004011154175, 0.7516626119613647, 
75, 432893227, -164.9048309326172, -74.2862548828125, -145.44827270507812, 9.8934326171875, -0.6955632567405701, -1.297231912612915, 2.927950620651245, -0.9041057229042053, 0.8796313405036926, 
76, 432901560, -164.7747039794922, -74.36685943603516, -145.56512451171875, 9.906098365783691, -0.6865158081054688, -1.2989068031311035, 3.0986435413360596, -0.030711468309164047, 0.9436925649642944, 
77, 432909893, -164.71435546875, -74.3720932006836, -145.6011505126953, 9.895694732666016, -0.6936004757881165, -1.2896684408187866, 3.101486921310425, 0.8259181976318359, 0.9555774927139282, 
78, 432918226, -164.5680389404297, -74.46675872802734, -145.73643493652344, 9.901174545288086, -0.6979690194129944, -1.312038540840149, 3.13539981842041, 1.7069966793060303, 0.9607259035110474, 
79, 432926559, -164.49172973632812, -74.4862289428711, -145.78810119628906, 9.902938842773438, -0.6776217818260193, -1.2927496433258057, 3.20737624168396, 2.599524974822998, 0.9721242785453796, 
80, 432934892, -164.32530212402344, -74.59414672851562, -145.94863891601562, 9.908206939697266, -0.6945969462394714, -1.2954092025756836, 3.3457956314086914, 3.4173617362976074, 1.0474812984466553, 
81, 432943225, -164.22828674316406, -74.62570190429688, -146.0202178955078, 9.905632019042969, -0.6735783219337463, -1.308506965637207, 3.3825008869171143, 4.157459259033203, 1.1673815250396729, 
82, 432951558, -164.0380401611328, -74.74612426757812, -146.20443725585938, 9.896014213562012, -0.6845864653587341, -1.3387157917022705, 3.294464588165283, 5.090278625488281, 1.3119484186172485, 
83, 432959891, -163.9211883544922, -74.79053497314453, -146.296142578125, 9.90015697479248, -0.6984910368919373, -1.2884461879730225, 3.432704448699951, 5.80983304977417, 1.303136944770813, 
84, 432968224, -163.71328735351562, -74.92129516601562, -146.49783325195312, 9.881329536437988, -0.7013598084449768, -1.3454604148864746, 3.4921038150787354, 6.499137878417969, 1.333848476409912, 
85, 432976557, -163.5777587890625, -74.97681427001953, -146.60704040527344, 9.915796279907227, -0.7085642218589783, -1.3560043573379517, 3.636209726333618, 7.2294769287109375, 1.3850512504577637, 
86, 432984890, -163.3468780517578, -75.11787414550781, -146.82989501953125, 9.894285202026367, -0.7123830318450928, -1.3796920776367188, 3.7010908126831055, 7.967039108276367, 1.4653263092041016, 
87, 432993223, -163.1910400390625, -75.1846923828125, -146.95953369140625, 9.900152206420898, -0.705716073513031, -1.4084727764129639, 3.6955583095550537, 8.697635650634766, 1.503952980041504, 
88, 433001556, -162.934326171875, -75.3344955444336, -147.20762634277344, 9.885198593139648, -0.7095819115638733, -1.4214943647384644, 3.786207437515259, 9.325721740722656, 1.7111462354660034, 
89, 433009889, -162.75547790527344, -75.40957641601562, -147.3594970703125, 9.88980770111084, -0.7023786306381226, -1.4207065105438232, 3.8613851070404053, 9.827556610107422, 1.734096884727478, 
90, 433018222, -162.4803466796875, -75.56586456298828, -147.62606811523438, 9.888891220092773, -0.7006955146789551, -1.420444130897522, 3.855058193206787, 10.390504837036133, 1.7619905471801758, 
91, 433026555, -162.28123474121094, -75.65025329589844, -147.7987518310547, 9.877177238464355, -0.6971838474273682, -1.4184871912002563, 3.859053611755371, 11.064132690429688, 1.834939956665039, 
92, 433034888, -161.98175048828125, -75.813232421875, -148.08998107910156, 9.895179748535156, -0.6949104070663452, -1.4398788213729858, 3.891071319580078, 11.549446105957031, 1.9348609447479248, 
93, 433043221, -161.76312255859375, -75.90420532226562, -148.28121948242188, 9.867920875549316, -0.6874293684959412, -1.4265049695968628, 4.020859241485596, 11.955126762390137, 1.9262807369232178, 
94, 433051554, -161.4383544921875, -76.07135772705078, -148.59490966796875, 9.901823997497559, -0.7068526148796082, -1.4284753799438477, 4.1476240158081055, 12.41057300567627, 2.118643283843994, 
95, 433059887, -161.1967315673828, -76.16917419433594, -148.80909729003906, 9.896247863769531, -0.6964731812477112, -1.4227712154388428, 4.080130577087402, 12.92142391204834, 2.0732035636901855, 
96, 433068220, -160.85182189941406, -76.34014129638672, -149.14898681640625, 9.872963905334473, -0.7008354663848877, -1.4660874605178833, 4.150365829467773, 13.206254959106445, 2.167285203933716, 
97, 433076553, -160.58966064453125, -76.44268798828125, -149.3834228515625, 9.899983406066895, -0.7096120119094849, -1.467824101448059, 4.1596879959106445, 13.616080284118652, 2.176992654800415, 
98, 433084886, -160.22076416015625, -76.61689758300781, -149.74102783203125, 9.897231101989746, -0.6985935568809509, -1.4826912879943848, 4.241679668426514, 13.987720489501953, 2.265669107437134, 
99, 433093219, -159.93589782714844, -76.72447204589844, -149.99761962890625, 9.87570858001709, -0.7061103582382202, -1.5044268369674683, 4.26227331161499, 14.356257438659668, 2.269101619720459, 
100, 433101552, -159.546875, -76.89937591552734, -150.378662109375, 9.873251914978027, -0.7079737186431885, -1.516273021697998, 4.168576240539551, 14.462990760803223, 2.348198175430298, 
101, 433109885, -159.23770141601562, -77.00910186767578, -150.66043090820312, 9.857470512390137, -0.6889663934707642, -1.5095293521881104, 4.20937967300415, 14.803455352783203, 2.5024983882904053, 
102, 433118218, -158.82565307617188, -77.18523406982422, -151.054443359375, 9.865787506103516, -0.7168582677841187, -1.5622375011444092, 4.251387119293213, 15.020407676696777, 2.4034736156463623, 
103, 433126551, -158.500732421875, -77.29650115966797, -151.3517608642578, 9.870035171508789, -0.7004268169403076, -1.5226609706878662, 4.237466335296631, 15.080690383911133, 2.474745273590088, 
104, 433134884, -158.06407165527344, -77.47055053710938, -151.78475952148438, 9.875452041625977, -0.6938307285308838, -1.5780973434448242, 4.245150566101074, 15.242188453674316, 2.6056597232818604, 
105, 433143217, -157.7208251953125, -77.58031463623047, -152.10023498535156, 9.867165565490723, -0.6937041282653809, -1.6143571138381958, 4.282047748565674, 15.051401138305664, 2.6108720302581787, 
106, 433151550, -157.26942443847656, -77.74962615966797, -152.54055786132812, 9.835280418395996, -0.6734901666641235, -1.6581408977508545, 4.283584117889404, 15.08482837677002, 2.656158208847046, 
107, 433159883, -156.91529846191406, -77.8576889038086, -152.86708068847656, 9.820850372314453, -0.6657448410987854, -1.7278977632522583, 4.250004768371582, 14.92530345916748, 2.568737030029297, 
108, 433168216, -156.45640563964844, -78.02090454101562, -153.3140869140625, 9.838430404663086, -0.6749894618988037, -1.7194541692733765, 4.3037428855896, 14.751407623291016, 2.5981674194335938, 
109, 433176549, -156.08709716796875, -78.12476348876953, -153.6549072265625, 9.808408737182617, -0.6710250973701477, -1.7157596349716187, 4.352128505706787, 14.55018138885498, 2.7186567783355713, 
110, 433184882, -155.62353515625, -78.28056335449219, -154.1157989501953, 9.790058135986328, -0.676774799823761, -1.6831598281860352, 4.327922344207764, 14.246217727661133, 2.5607709884643555, 
111, 433193215, -155.25279235839844, -78.37763214111328, -154.45860290527344, 9.806222915649414, -0.6508035659790039, -1.7415916919708252, 4.270994663238525, 13.78614616394043, 2.717132568359375, 
112, 433201548, -154.786376953125, -78.5250015258789, -154.91993713378906, 9.782831192016602, -0.6517011523246765, -1.761438250541687, 4.115939140319824, 13.602760314941406, 2.6172499656677246, 
113, 433209881, -154.41537475585938, -78.61769104003906, -155.26307678222656, 9.795185089111328, -0.6513584852218628, -1.7459540367126465, 4.237696647644043, 13.269558906555176, 2.589625358581543, 
114, 433218214, -153.95706176757812, -78.75492858886719, -155.7140350341797, 9.765918731689453, -0.6703594923019409, -1.7678196430206299, 4.125275135040283, 12.6991548538208, 2.5019729137420654, 
115, 433226547, -153.59442138671875, -78.83980560302734, -156.0490264892578, 9.793899536132812, -0.6628507971763611, -1.7912163734436035, 4.159624099731445, 12.298444747924805, 2.498720169067383, 
116, 433234880, -153.14707946777344, -78.9670639038086, -156.48880004882812, 9.77283763885498, -0.6446433663368225, -1.8038650751113892, 4.039275169372559, 11.766040802001953, 2.418483257293701, 
117, 433243213, -152.79318237304688, -79.04302215576172, -156.81597900390625, 9.734923362731934, -0.653107762336731, -1.8063548803329468, 4.01725959777832, 11.22907543182373, 2.5146517753601074, 
118, 433251546, -152.3566436767578, -79.15959167480469, -157.24951171875, 9.785025596618652, -0.6538732647895813, -1.8060685396194458, 3.9747018814086914, 10.782685279846191, 2.4267055988311768, 
119, 433259879, -152.02178955078125, -79.2275161743164, -157.55825805664062, 9.754720687866211, -0.6470863819122314, -1.798058271408081, 3.8793528079986572, 10.146363258361816, 2.3311262130737305, 
120, 433268212, -151.61048889160156, -79.33275604248047, -157.96270751953125, 9.749214172363281, -0.6517136693000793, -1.827594518661499, 3.909424066543579, 9.589381217956543, 2.245830774307251, 
121, 433276545, -151.29513549804688, -79.39057159423828, -158.25259399414062, 9.747414588928223, -0.6524317264556885, -1.8529540300369263, 3.739985466003418, 8.845260620117188, 2.319420099258423, 
122, 433284878, -150.91078186035156, -79.48258972167969, -158.63388061523438, 9.745715141296387, -0.6604442000389099, -1.843938946723938, 3.745903253555298, 8.183979988098145, 2.2505438327789307, 
123, 433293211, -150.62454223632812, -79.5317611694336, -158.89454650878906, 9.729418754577637, -0.6489360928535461, -1.8569968938827515, 3.6931376457214355, 7.607479095458984, 2.0796968936920166, 
124, 433301544, -150.27572631835938, -79.61207580566406, -159.2389678955078, 9.72756576538086, -0.6430237889289856, -1.868962049484253, 3.689744234085083, 6.842702388763428, 2.06160044670105, 
125, 433309877, -150.01600646972656, -79.65027618408203, -159.47311401367188, 9.734911918640137, -0.6346981525421143, -1.8653864860534668, 3.6316633224487305, 6.166807174682617, 2.0906341075897217, 
126, 433318210, -149.70748901367188, -79.71675109863281, -159.77642822265625, 9.730300903320312, -0.6572664380073547, -1.8650081157684326, 3.506307363510132, 5.239494323730469, 2.017223596572876, 
127, 433326543, -149.48318481445312, -79.74479675292969, -159.9759063720703, 9.715394973754883, -0.633929967880249, -1.9030938148498535, 3.4658875465393066, 4.721958637237549, 1.9697858095169067, 
128, 433334876, -149.21656799316406, -79.79847717285156, -160.23684692382812, 9.708312034606934, -0.6628862619400024, -1.9266782999038696, 3.3825390338897705, 3.7542266845703125, 1.9338743686676025, 
129, 433343209, -149.03501892089844, -79.81452941894531, -160.3939666748047, 9.700203895568848, -0.6576860547065735, -1.9000526666641235, 3.334460973739624, 3.0164601802825928, 1.8684817552566528, 
130, 433351542, -148.81951904296875, -79.85479736328125, -160.6056365966797, 9.71410846710205, -0.6340480446815491, -1.9289523363113403, 3.2330291271209717, 2.082155704498291, 1.7909985780715942, 
131, 433359875, -148.68270874023438, -79.85767364501953, -160.71884155273438, 9.695953369140625, -0.6445355415344238, -1.9219781160354614, 3.156723737716675, 1.1749504804611206, 1.8637940883636475, 
132, 433368208, -148.5182342529297, -79.88444519042969, -160.8804931640625, 9.690933227539062, -0.6256873607635498, -1.9568758010864258, 3.079983949661255, 0.4120050072669983, 1.7127728462219238, 
133, 433376541, -148.43167114257812, -79.8770523071289, -160.94346618652344, 9.703573226928711, -0.6368359923362732, -1.8992775678634644, 3.0613110065460205, -0.42622092366218567, 1.591924786567688, 
134, 433384874, -148.32513427734375, -79.88995361328125, -161.04693603515625, 9.69025707244873, -0.6436746716499329, -1.9090502262115479, 2.957521915435791, -1.3886116743087769, 1.5636720657348633, 
135, 433393207, -148.28640747070312, -79.86969757080078, -161.06268310546875, 9.704458236694336, -0.6340538263320923, -1.9344114065170288, 2.9056529998779297, -2.2625181674957275, 1.5525811910629272, 
136, 433401540, -148.23440551757812, -79.86925506591797, -161.111083984375, 9.700152397155762, -0.6295883655548096, -1.907332181930542, 2.911032199859619, -3.1234641075134277, 1.4526089429855347, 
137, 433409873, -148.24359130859375, -79.83763122558594, -161.0784912109375, 9.713441848754883, -0.6381093859672546, -1.9393370151519775, 2.8708176612854004, -3.9624834060668945, 1.4079887866973877, 
138, 433418206, -148.24398803710938, -79.82523345947266, -161.07598876953125, 9.70909309387207, -0.6272483468055725, -1.8763114213943481, 2.743131160736084, -4.69868803024292, 1.3114489316940308, 
139, 433426539, -148.3048858642578, -79.78205871582031, -160.9930877685547, 9.699950218200684, -0.6412005424499512, -1.895077109336853, 2.601868152618408, -5.721310138702393, 1.228945255279541, 
140, 433434872, -148.36196899414062, -79.7564468383789, -160.93370056152344, 9.707364082336426, -0.638645589351654, -1.907737374305725, 2.5378201007843018, -6.475636959075928, 1.156111240386963, 
141, 433443205, -148.4629669189453, -79.70287322998047, -160.81076049804688, 9.705681800842285, -0.6355911493301392, -1.8900820016860962, 2.541086435317993, -7.2346014976501465, 1.121058464050293, 
142, 433451538, -148.57310485839844, -79.66525268554688, -160.69776916503906, 9.707162857055664, -0.6469084620475769, -1.8706532716751099, 2.423849105834961, -8.1275634765625, 0.951517641544342, 
143, 433459871, -148.7200469970703, -79.60186004638672, -160.52935791015625, 9.721364974975586, -0.6500375866889954, -1.865993857383728, 2.380472183227539, -8.784530639648438, 0.8563224077224731, 
144, 433468204, -148.86993408203125, -79.55305480957031, -160.3769989013672, 9.721389770507812, -0.6323822140693665, -1.8596385717391968, 2.347647190093994, -9.560809135437012, 0.8815908432006836, 
145, 433476537, -149.04824829101562, -79.47943115234375, -160.17758178710938, 9.75843620300293, -0.6645025610923767, -1.8429313898086548, 2.2782838344573975, -10.209693908691406, 0.8259567022323608, 
146, 433484870, -149.23353576660156, -79.42021179199219, -159.9906463623047, 9.740169525146484, -0.6417462825775146, -1.8258135318756104, 2.2198832035064697, -10.916312217712402, 0.8150193691253662, 
147, 433493203, -149.44091796875, -79.33755493164062, -159.7621307373047, 9.735490798950195, -0.6525184512138367, -1.8132272958755493, 2.223059892654419, -11.503880500793457, 0.7096168994903564, 
148, 433501536, -149.66220092773438, -79.26897430419922, -159.54173278808594, 9.73398494720459, -0.6594497561454773, -1.8277398347854614, 2.0380477905273438, -12.1882905960083, 0.6255764961242676, 
149, 433509869, -149.89566040039062, -79.17703247070312, -159.2875213623047, 9.75355339050293, -0.644838273525238, -1.8156226873397827, 2.1055543422698975, -12.814111709594727, 0.6309427618980408, 
150, 433518202, -150.1445770263672, -79.099365234375, -159.0377960205078, 9.749119758605957, -0.6401649713516235, -1.7993645668029785, 2.0021369457244873, -13.357274055480957, 0.4894368350505829, 
151, 433526535, -150.40109252929688, -79.00021362304688, -158.7606201171875, 9.75223445892334, -0.6210500597953796, -1.7870899438858032, 2.037459373474121, -13.880292892456055, 0.41971495747566223, 
152, 433534868, -150.6728515625, -78.91414642333984, -158.4889373779297, 9.763494491577148, -0.6404173970222473, -1.7731928825378418, 1.908542513847351, -14.441217422485352, 0.3763243854045868, 
153, 433543201, -150.94851684570312, -78.80685424804688, -158.19297790527344, 9.779608726501465, -0.6594773530960083, -1.7822788953781128, 1.9398815631866455, -15.002389907836914, 0.2949095666408539, 
154, 433551534, -151.2362823486328, -78.71444702148438, -157.90419006347656, 9.791138648986816, -0.6502549648284912, -1.7844761610031128, 1.8963117599487305, -15.270517349243164, 0.21458326280117035, 
155, 433559867, -151.5187530517578, -78.60096740722656, -157.6017608642578, 9.784368515014648, -0.6559511423110962, -1.771138072013855, 1.8678542375564575, -15.78718376159668, 0.26399317383766174, 
156, 433568200, -151.81683349609375, -78.5013427734375, -157.30316162109375, 9.778349876403809, -0.6393229365348816, -1.7544201612472534, 1.7856452465057373, -16.13170623779297, 0.19369487464427948, 
157, 433576533, -152.10635375976562, -78.38311004638672, -156.99380493164062, 9.795022010803223, -0.6531690359115601, -1.7479562759399414, 1.8037035465240479, -16.44663429260254, 0.11746690422296524, 
158, 433584866, -152.41744995117188, -78.27862548828125, -156.6859588623047, 9.800345420837402, -0.653509795665741, -1.7130825519561768, 1.7094303369522095, -16.791593551635742, -0.062191374599933624, 
159, 433593199, -152.7114715576172, -78.15518188476562, -156.37216186523438, 9.808540344238281, -0.6443212032318115, -1.7529629468917847, 1.7681125402450562, -17.118305206298828, 0.013793268240988255, 
160, 433601532, -153.0220947265625, -78.04647064208984, -156.06373596191406, 9.829097747802734, -0.6407747268676758, -1.7123911380767822, 1.656447410583496, -17.26999282836914, -0.08324628323316574, 
161, 433609865, -153.31326293945312, -77.92101287841797, -155.75393676757812, 9.83043384552002, -0.6716919541358948, -1.6746042966842651, 1.6196142435073853, -17.35751724243164, -0.09879413992166519, 
162, 433618198, -153.6231231689453, -77.80841827392578, -155.44552612304688, 9.831061363220215, -0.6755870580673218, -1.671875238418579, 1.616322636604309, -17.717243194580078, -0.14162114262580872, 
163, 433626531, -153.9098663330078, -77.67935943603516, -155.14002990722656, 9.864280700683594, -0.6925214529037476, -1.6353386640548706, 1.620356798171997, -17.764732360839844, -0.12005395442247391, 
164, 433634864, -154.20648193359375, -77.56604766845703, -154.84542846679688, 9.86599349975586, -0.6964660882949829, -1.5817288160324097, 1.594973087310791, -17.711183547973633, -0.08323348313570023, 
165, 433643197, -154.47950744628906, -77.43734741210938, -154.55323791503906, 9.87427043914795, -0.6735116839408875, -1.5615439414978027, 1.677220344543457, -17.645790100097656, -0.13515353202819824, 
166, 433651530, -154.76084899902344, -77.32588195800781, -154.27479553222656, 9.880083084106445, -0.6923677921295166, -1.5360709428787231, 1.5674376487731934, -17.412084579467773, -0.09071282297372818, 
167, 433659863, -155.01553344726562, -77.20010375976562, -154.00198364257812, 9.856616973876953, -0.6822136044502258, -1.5253994464874268, 1.5837796926498413, -17.178895950317383, -0.10907824337482452, 
168, 433668196, -155.28131103515625, -77.0908432006836, -153.73843383789062, 9.885172843933105, -0.6745291948318481, -1.5063761472702026, 1.6499158143997192, -17.101232528686523, -0.09727008640766144, 
169, 433676529, -155.5221405029297, -76.96785736083984, -153.4794464111328, 9.863669395446777, -0.7004052400588989, -1.5109525918960571, 1.6079210042953491, -16.77266502380371, -0.1763284057378769, 
170, 433684862, -155.7700958251953, -76.86248779296875, -153.23214721679688, 9.86778450012207, -0.6983821392059326, -1.5023109912872314, 1.7204700708389282, -16.571773529052734, -0.10015168786048889, 
171, 433693195, -155.9922637939453, -76.74331665039062, -152.99134826660156, 9.869157791137695, -0.6866320967674255, -1.48640775680542, 1.7010542154312134, -16.203105926513672, -0.15196926891803741, 
172, 433701528, -156.21629333496094, -76.64385223388672, -152.76844787597656, 9.882088661193848, -0.6927196383476257, -1.4585416316986084, 1.8143209218978882, -15.771456718444824, -0.005763204302638769, 
173, 433709861, -156.41494750976562, -76.52981567382812, -152.55116271972656, 9.869220733642578, -0.6968674063682556, -1.4355541467666626, 1.7599159479141235, -15.422101020812988, -0.014574501663446426, 
174, 433718194, -156.62110900878906, -76.43605041503906, -152.35342407226562, 9.89989185333252, -0.6900621056556702, -1.4494353532791138, 1.7632458209991455, -15.044011116027832, 0.017635403200984, 
175, 433726527, -156.7987060546875, -76.32830810546875, -152.15724182128906, 9.889533042907715, -0.6974901556968689, -1.4435579776763916, 1.8173683881759644, -14.53361988067627, 0.04778335988521576, 
176, 433734860, -156.9854278564453, -76.24258422851562, -151.9762725830078, 9.883514404296875, -0.7081269025802612, -1.4298497438430786, 1.9400864839553833, -14.064393997192383, -0.03839574381709099, 
177, 433743193, -157.14456176757812, -76.14198303222656, -151.79737854003906, 9.893402099609375, -0.6772072911262512, -1.395581841468811, 1.998128056526184, -13.5923490524292, 0.019018571823835373, 
178, 433751526, -157.3057098388672, -76.06587219238281, -151.64122009277344, 9.896080017089844, -0.6848421692848206, -1.4348183870315552, 1.9012807607650757, -12.818849563598633, 0.09145563095808029, 
179, 433759859, -157.44325256347656, -75.97350311279297, -151.48419189453125, 9.878388404846191, -0.7091623544692993, -1.4071472883224487, 2.0474867820739746, -12.463147163391113, 0.09322303533554077, 
180, 433768192, -157.5833740234375, -75.90542602539062, -151.3451385498047, 9.895374298095703, -0.6808286309242249, -1.400597095489502, 2.0041091442108154, -11.809444427490234, 0.18245021998882294, 
181, 433776525, -157.69898986816406, -75.82262420654297, -151.21055603027344, 9.900222778320312, -0.7161288261413574, -1.3875415325164795, 2.0510854721069336, -11.18194580078125, 0.16989924013614655, 
182, 433784858, -157.81515502929688, -75.7651138305664, -151.09742736816406, 9.910340309143066, -0.6807966232299805, -1.360485315322876, 2.232536792755127, -10.501696586608887, 0.24753598868846893, 
183, 433793191, -157.90847778320312, -75.69296264648438, -150.98472595214844, 9.891292572021484, -0.691190779209137, -1.3377182483673096, 2.1925528049468994, -9.77039623260498, 0.21185532212257385, 
184, 433801524, -158.0009307861328, -75.64708709716797, -150.89320373535156, 9.907994270324707, -0.6922589540481567, -1.3492298126220703, 2.3641815185546875, -9.072332382202148, 0.3182697296142578, 
185, 433809857, -158.06710815429688, -75.5865249633789, -150.8062286376953, 9.887846946716309, -0.6899642944335938, -1.3246057033538818, 2.4539077281951904, -8.211668014526367, 0.35320743918418884, 
186, 433818190, -158.13681030273438, -75.55394744873047, -150.73924255371094, 9.891326904296875, -0.6831576824188232, -1.3054172992706299, 2.4391798973083496, -7.452258110046387, 0.32636380195617676, 
187, 433826523, -158.183349609375, -75.50636291503906, -150.67221069335938, 9.892989158630371, -0.7044086456298828, -1.3159259557724, 2.4934558868408203, -6.566900253295898, 0.304207444190979, 
188, 433834856, -158.23008728027344, -75.48727416992188, -150.62738037109375, 9.904518127441406, -0.6910392045974731, -1.256597638130188, 2.578674554824829, -5.824062824249268, 0.3433460295200348, 
189, 433843189, -158.25436401367188, -75.4522476196289, -150.58287048339844, 9.897461891174316, -0.6731844544410706, -1.3293410539627075, 2.5594639778137207, -4.916652679443359, 0.3564605414867401, 
190, 433851522, -158.2762908935547, -75.44682312011719, -150.56256103515625, 9.903939247131348, -0.6916913390159607, -1.2760170698165894, 2.655491828918457, -4.144152641296387, 0.4395275115966797, 
191, 433859855, -158.27622985839844, -75.42532348632812, -150.5416259765625, 9.904561042785645, -0.6878353357315063, -1.2872058153152466, 2.738943099975586, -3.1668930053710938, 0.41962528228759766, 
192, 433868188, -158.2755126953125, -75.4330062866211, -150.54469299316406, 9.903773307800293, -0.6716610789299011, -1.2798540592193604, 2.792886257171631, -2.5537643432617188, 0.4878358542919159, 
193, 433876521, -158.2486114501953, -75.4229736328125, -150.54989624023438, 9.889415740966797, -0.6770254373550415, -1.2915455102920532, 2.936070442199707, -1.6030926704406738, 0.6429302096366882, 
194, 433884854, -158.22171020507812, -75.4447250366211, -150.57798767089844, 9.893122673034668, -0.6874138712882996, -1.2872918844223022, 2.9225969314575195, -0.8126116394996643, 0.6036891341209412, 
195, 433893187, -158.17381286621094, -75.44906616210938, -150.60379028320312, 9.896384239196777, -0.6995413303375244, -1.3052549362182617, 3.070915937423706, 0.21971890330314636, 0.582288384437561, 
196, 433901520, -158.12176513671875, -75.48523712158203, -150.6577911376953, 9.899043083190918, -0.6666416525840759, -1.288678765296936, 3.0838770866394043, 0.9469839930534363, 0.6539826989173889, 
197, 433909853, -158.05174255371094, -75.50171661376953, -150.70681762695312, 9.917764663696289, -0.6701193451881409, -1.284706473350525, 3.032712936401367, 1.8197506666183472, 0.6884466409683228, 
198, 433918186, -157.97682189941406, -75.55221557617188, -150.7832489013672, 9.889740943908691, -0.6929500699043274, -1.3003535270690918, 3.158555507659912, 2.692222833633423, 0.649410605430603, 
199, 433926519, -157.8783416748047, -75.58167266845703, -150.86016845703125, 9.898787498474121, -0.6884872317314148, -1.2858906984329224, 3.210501194000244, 3.5613138675689697, 0.865594744682312, 
200, 433934852, -157.77490234375, -75.64546203613281, -150.9647674560547, 9.895153999328613, -0.692166268825531, -1.3033719062805176, 3.23380970954895, 4.377408027648926, 0.8240227103233337, 
201, 433943185, -157.65499877929688, -75.68701934814453, -151.06265258789062, 9.904272079467773, -0.6825222969055176, -1.3087303638458252, 3.345975160598755, 5.130006790161133, 0.8642115592956543, 
202, 433951518, -157.52169799804688, -75.7636947631836, -151.1969757080078, 9.891401290893555, -0.6918994188308716, -1.3260043859481812, 3.45605206489563, 6.020780086517334, 0.9873263835906982, 
203, 433959851, -157.3762664794922, -75.81685638427734, -151.31991577148438, 9.91772174835205, -0.691095769405365, -1.3417572975158691, 3.503169536590576, 6.682715892791748, 0.9636716246604919, 
204, 433968184, -157.22177124023438, -75.90437316894531, -151.47605895996094, 9.899286270141602, -0.7310800552368164, -1.3703136444091797, 3.5642590522766113, 7.357727527618408, 0.9830102324485779, 
205, 433976517, -157.05166625976562, -75.9678955078125, -151.62294006347656, 9.898771286010742, -0.6993035674095154, -1.3707822561264038, 3.6696622371673584, 8.073850631713867, 1.055806040763855, 
206, 433984850, -156.87083435058594, -76.06576538085938, -151.8033905029297, 9.894659042358398, -0.7012896537780762, -1.3984100818634033, 3.7503468990325928, 8.691410064697266, 1.0846221446990967, 
207, 433993183, -156.67539978027344, -76.1380386352539, -151.97552490234375, 9.896984100341797, -0.7154233455657959, -1.4136816263198853, 3.7683024406433105, 9.307331085205078, 1.2083901166915894, 
208, 434001516, -156.46871948242188, -76.24535369873047, -152.18382263183594, 9.910277366638184, -0.6963884830474854, -1.4024289846420288, 3.7606053352355957, 9.93924617767334, 1.2011797428131104, 
209, 434009849, -156.25079345703125, -76.32627868652344, -152.3785400390625, 9.89483642578125, -0.7241698503494263, -1.4278360605239868, 3.822002649307251, 10.477605819702148, 1.2570441961288452, 
210, 434018182, -156.01380920410156, -76.44111633300781, -152.617431640625, 9.8999662399292, -0.6920366287231445, -1.431640863418579, 3.8944146633148193, 11.01176643371582, 1.445616364479065, 
211, 434026515, -155.76722717285156, -76.5288314819336, -152.84042358398438, 9.903641700744629, -0.704274594783783, -1.4365359544754028, 3.961254596710205, 11.516376495361328, 1.484511375427246, 
212, 434034848, -155.51243591308594, -76.62003326416016, -153.07139587402344, 9.888728141784668, -0.6878683567047119, -1.4341288805007935, 3.977417230606079, 12.013578414916992, 1.415865421295166, 
213, 434043181, -155.2393341064453, -76.74547576904297, -153.34600830078125, 9.884021759033203, -0.6979153752326965, -1.4757649898529053, 3.9634060859680176, 12.44599723815918, 1.5418362617492676, 
214, 434051514, -154.95046997070312, -76.87405395507812, -153.63449096679688, 9.883800506591797, -0.7072319388389587, -1.4657038450241089, 4.178463459014893, 12.925853729248047, 1.591835379600525, 
215, 434059847, -154.65711975097656, -76.97442626953125, -153.9050750732422, 9.872712135314941, -0.6897431015968323, -1.46547269821167, 3.9757015705108643, 13.34936237335205, 1.604232907295227, 
216, 434068180, -154.34378051757812, -77.10797119140625, -154.21942138671875, 9.872851371765137, -0.7028782963752747, -1.4740064144134521, 4.104271411895752, 13.675568580627441, 1.6812928915023804, 
217, 434076513, -154.023193359375, -77.21175384521484, -154.51580810546875, 9.866466522216797, -0.6960877776145935, -1.505741000175476, 4.195368766784668, 13.96387004852295, 1.7796900272369385, 
218, 434084846, -153.68479919433594, -77.3485336303711, -154.85606384277344, 9.883301734924316, -0.6850338578224182, -1.502055048942566, 4.123764514923096, 14.231298446655273, 1.7982991933822632, 
219, 434093179, -153.33944702148438, -77.45575714111328, -155.17764282226562, 9.884419441223145, -0.6907162070274353, -1.5048166513442993, 4.213337421417236, 14.57947063446045, 1.875961184501648, 
220, 434101512, -152.97723388671875, -77.59447479248047, -155.5438232421875, 9.862391471862793, -0.7139874696731567, -1.5422285795211792, 4.216975212097168, 14.620505332946777, 1.8906126022338867, 
221, 434109845, -152.61050415039062, -77.7024154663086, -155.8867645263672, 9.858283042907715, -0.6874999403953552, -1.5341050624847412, 4.238055229187012, 14.836304664611816, 1.9949650764465332, 
222, 434118178, -152.2216339111328, -77.84272766113281, -156.27761840820312, 9.89246654510498, -0.7132203578948975, -1.558455467224121, 4.2609543800354, 15.035148620605469, 2.0178897380828857, 
223, 434126511, -151.8336181640625, -77.9505386352539, -156.6417999267578, 9.86043930053711, -0.7027073502540588, -1.6072940826416016, 4.279345989227295, 15.001211166381836, 2.117760181427002, 
224, 434134844, -151.42848205566406, -78.08917236328125, -157.0482177734375, 9.836823463439941, -0.6992976665496826, -1.669061541557312, 4.274761199951172, 14.98154067993164, 2.060025453567505, 
225, 434143177, -151.02830505371094, -78.19523620605469, -157.4250946044922, 9.857996940612793, -0.690783679485321, -1.6644330024719238, 4.210135459899902, 14.891145706176758, 2.115915060043335, 
226, 434151510, -150.61016845703125, -78.33112335205078, -157.84080505371094, 9.834280014038086, -0.6755139231681824, -1.6796990633010864, 4.332469463348389, 14.793938636779785, 2.061459541320801, 
227, 434159843, -150.20150756835938, -78.43402862548828, -158.2257843017578, 9.835409164428711, -0.6487514972686768, -1.7200462818145752, 4.250132083892822, 14.587706565856934, 2.0905447006225586, 
228, 434168176, -149.77548217773438, -78.56510925292969, -158.6535186767578, 9.804658889770508, -0.6655152440071106, -1.7457154989242554, 4.180538177490234, 14.355359077453613, 2.1255078315734863, 
229, 434176509, -149.3600311279297, -78.6634292602539, -159.04495239257812, 9.813356399536133, -0.6667143106460571, -1.7310709953308105, 4.272122383117676, 14.1068115234375, 2.1224985122680664, 
230, 434184842, -148.9306640625, -78.78962707519531, -159.47769165039062, 9.80793285369873, -0.6611664295196533, -1.7092312574386597, 4.132857322692871, 13.846364974975586, 2.0932722091674805, 
231, 434193175, -148.5146026611328, -78.88199615478516, -159.87057495117188, 9.80607795715332, -0.6408637762069702, -1.778151035308838, 4.152324199676514, 13.438152313232422, 2.1544394493103027, 
232, 434201508, -148.08721923828125, -79.00051879882812, -160.29888916015625, 9.815555572509766, -0.6435712575912476, -1.7427576780319214, 4.09269380569458, 13.02768325805664, 2.1405818462371826, 
233, 434209841, -147.68142700195312, -79.08601379394531, -160.68190002441406, 9.808552742004395, -0.6515374183654785, -1.7839664220809937, 4.059600353240967, 12.552359580993652, 2.053826332092285, 
234, 434218174, -147.2659912109375, -79.19596862792969, -161.0972900390625, 9.77112102508545, -0.6634847521781921, -1.8041741847991943, 4.137518882751465, 11.993995666503906, 2.0872278213500977, 
235, 434226507, -146.86778259277344, -79.27295684814453, -161.47267150878906, 9.792804718017578, -0.6553666591644287, -1.7872761487960815, 4.028991222381592, 11.53596019744873, 2.15080189704895, 
236, 434234840, -146.46670532226562, -79.3742904663086, -161.87380981445312, 9.780671119689941, -0.6445292830467224, -1.7919154167175293, 3.9925172328948975, 10.952136039733887, 2.0913257598876953, 
237, 434243173, -146.08554077148438, -79.44398498535156, -162.23179626464844, 9.776881217956543, -0.6504961252212524, -1.7980237007141113, 4.013597011566162, 10.533649444580078, 2.0436830520629883, 
238, 434251506, -145.70806884765625, -79.53710174560547, -162.6103515625, 9.747868537902832, -0.6412129402160645, -1.8088740110397339, 3.910320520401001, 9.864837646484375, 1.9358984231948853, 
239, 434259839, -145.3524169921875, -79.59778594970703, -162.9432373046875, 9.768750190734863, -0.6501786112785339, -1.8374645709991455, 3.9145219326019287, 9.287748336791992, 1.9577988386154175, 
240, 434268172, -144.9978485107422, -79.68177795410156, -163.29925537109375, 9.75084114074707, -0.6547622680664062, -1.8216439485549927, 3.7768449783325195, 8.72264575958252, 1.9356423616409302, 
241, 434276505, -144.67160034179688, -79.73367309570312, -163.6034698486328, 9.737643241882324, -0.6420626640319824, -1.851070761680603, 3.7489001750946045, 8.02020263671875, 1.871350646018982, 
242, 434284838, -144.34808349609375, -79.8072280883789, -163.9270477294922, 9.733148574829102, -0.6514354348182678, -1.861194372177124, 3.7383973598480225, 7.361505508422852, 1.9277528524398804, 
243, 434293171, -144.05245971679688, -79.8490982055664, -164.2010955810547, 9.7499418258667, -0.6416007280349731, -1.856579065322876, 3.6380417346954346, 6.637853145599365, 1.9005253314971924, 
244, 434301504, -143.7722930908203, -79.91190338134766, -164.4828338623047, 9.732748031616211, -0.6394515037536621, -1.8695639371871948, 3.5667312145233154, 5.851649284362793, 1.8204294443130493, 
245, 434309837, -143.51840209960938, -79.94339752197266, -164.7158966064453, 9.714156150817871, -0.6585557460784912, -1.894415020942688, 3.4677319526672363, 5.100485801696777, 1.8309566974639893, 
246, 434318170, -143.28195190429688, -79.9957504272461, -164.9547576904297, 9.735243797302246, -0.660493016242981, -1.8990530967712402, 3.445089101791382, 4.3851318359375, 1.7433817386627197, 
247, 434326503, -143.07005310058594, -80.0174789428711, -165.14569091796875, 9.693984985351562, -0.6564197540283203, -1.9073007106781006, 3.421062707901001, 3.6224160194396973, 1.7521417140960693, 
248, 434334836, -142.8812255859375, -80.05865478515625, -165.335693359375, 9.703579902648926, -0.6581456661224365, -1.917637586593628, 3.4063093662261963, 2.797330617904663, 1.703602910041809, 
249, 434343169, -142.72071838378906, -80.06867218017578, -165.47462463378906, 9.711097717285156, -0.6465471386909485, -1.8772554397583008, 3.39742112159729, 1.8368481397628784, 1.705216646194458, 
250, 434351502, -142.59107971191406, -80.0977783203125, -165.60581970214844, 9.705848693847656, -0.6569729447364807, -1.9383037090301514, 3.2926583290100098, 1.003386378288269, 1.5897217988967896, 
251, 434359835, -142.48382568359375, -80.09688568115234, -165.69273376464844, 9.709617614746094, -0.656415581703186, -1.9396800994873047, 3.171144723892212, 0.13957196474075317, 1.6322928667068481, 
252, 434368168, -142.40650939941406, -80.11433410644531, -165.77293395996094, 9.690147399902344, -0.6508163213729858, -1.917962908744812, 3.1424314975738525, -0.6368851661682129, 1.5983794927597046, 
253, 434376501, -142.35560607910156, -80.10282897949219, -165.8040313720703, 9.693036079406738, -0.6537327170372009, -1.9339314699172974, 3.0138988494873047, -1.5758260488510132, 1.497817873954773, 
254, 434384834, -142.3424835205078, -80.10881042480469, -165.8206787109375, 9.700224876403809, -0.6518275737762451, -1.9209121465682983, 2.9124667644500732, -2.4244000911712646, 1.43805992603302, 
255, 434393167, -142.34384155273438, -80.08682250976562, -165.79954528808594, 9.703484535217285, -0.6482113003730774, -1.9145277738571167, 2.9222257137298584, -3.2386767864227295, 1.4194128513336182, 
256, 434401500, -142.3892822265625, -80.08197021484375, -165.7564239501953, 9.721412658691406, -0.641209602355957, -1.908141016960144, 2.949120283126831, -4.094653129577637, 1.2799177169799805, 
257, 434409833, -142.44534301757812, -80.04891204833984, -165.68075561523438, 9.697749137878418, -0.6472207903862, -1.9204010963439941, 2.813595771789551, -4.988589763641357, 1.3355517387390137, 
258, 434418166, -142.5430908203125, -80.03216552734375, -165.58737182617188, 9.726889610290527, -0.6568574905395508, -1.9282233715057373, 2.766490936279297, -5.768953323364258, 1.3147274255752563, 
259, 434426499, -142.65283203125, -79.98906707763672, -165.4576873779297, 9.743467330932617, -0.6598975658416748, -1.934993028640747, 2.7562711238861084, -6.649481773376465, 1.1645768880844116, 
260, 434434832, -142.80889892578125, -79.96095275878906, -165.30589294433594, 9.725430488586426, -0.6411458253860474, -1.8950238227844238, 2.599921941757202, -7.492536544799805, 1.183915615081787, 
261, 434443165, -142.9630889892578, -79.90653991699219, -165.13343811035156, 9.738195419311523, -0.6551127433776855, -1.87233567237854, 2.4891915321350098, -8.294388771057129, 1.2234128713607788, 
262, 434451498, -143.1588897705078, -79.86962127685547, -164.9421844482422, 9.729363441467285, -0.6511530876159668, -1.8642187118530273, 2.507122039794922, -8.750811576843262, 1.121314525604248, 
263, 434459831, -143.3544464111328, -79.80669403076172, -164.7274169921875, 9.728187561035156, -0.6379388570785522, -1.85484778881073, 2.5163679122924805, -9.689698219299316, 1.0538208484649658, 
264, 434468164, -143.59730529785156, -79.7588119506836, -164.48971557617188, 9.751215934753418, -0.6533159613609314, -1.846049189567566, 2.406611680984497, -10.344733238220215, 1.0494154691696167, 
265, 434476497, -143.83163452148438, -79.68754577636719, -164.23765563964844, 9.741735458374023, -0.6637387871742249, -1.824929118156433, 2.280819892883301, -11.000380516052246, 0.8862782120704651, 
266, 434484830, -144.1144256591797, -79.63062286376953, -163.95980834960938, 9.749679565429688, -0.6416763663291931, -1.8216067552566528, 2.2630178928375244, -11.684050559997559, 0.9068722128868103, 
267, 434493163, -144.37579345703125, -79.5509262084961, -163.68069458007812, 9.751296043395996, -0.6501530408859253, -1.798971176147461, 2.227593421936035, -12.213752746582031, 0.8566170334815979, 
268, 434501496, -144.6934814453125, -79.48552703857422, -163.36883544921875, 9.74215030670166, -0.6570825576782227, -1.815997838973999, 2.198239803314209, -12.920143127441406, 0.7378182411193848, 
269, 434509829, -144.97775268554688, -79.39741516113281, -163.06736755371094, 9.781110763549805, -0.6485503315925598, -1.7951587438583374, 2.1088969707489014, -13.381529808044434, 0.8526210188865662, 
270, 434518162, -145.3171844482422, -79.32369995117188, -162.733642578125, 9.761592864990234, -0.6676183342933655, -1.780239224433899, 2.129234790802002, -13.989204406738281, 0.730518102645874, 
271, 434526495, -145.6245574951172, -79.22834014892578, -162.40896606445312, 9.784868240356445, -0.6523518562316895, -1.788741946220398, 2.0562210083007812, -14.470609664916992, 0.7084513306617737, 
272, 434534828, -145.98492431640625, -79.14790344238281, -162.05535888671875, 9.791280746459961, -0.658308744430542, -1.781719446182251, 1.9638053178787231, -14.917373657226562, 0.5995652675628662, 
273, 434543161, -146.30886840820312, -79.04686737060547, -161.7141571044922, 9.783201217651367, -0.6491894125938416, -1.7486069202423096, 1.9946577548980713, -15.3239107131958, 0.524733304977417, 
274, 434551494, -146.67733764648438, -78.95997619628906, -161.35250854492188, 9.804553985595703, -0.6383913159370422, -1.753105878829956, 1.962281346321106, -15.671828269958496, 0.6108483672142029, 
275, 434559827, -147.00991821289062, -78.8525161743164, -161.00328063964844, 9.807676315307617, -0.6601181626319885, -1.7589350938796997, 1.8937633037567139, -16.150161743164062, 0.5086732506752014, 
276, 434568160, -147.38758850097656, -78.75959777832031, -160.6331024169922, 9.797008514404297, -0.6641679406166077, -1.731469988822937, 1.8133859634399414, -16.42450523376465, 0.5723246335983276, 
277, 434576493, -147.72390747070312, -78.64714050292969, -160.2814178466797, 9.805757522583008, -0.6571913361549377, -1.7288154363632202, 1.7165639400482178, -16.770858764648438, 0.47163498401641846, 
278, 434584826, -148.10958862304688, -78.5488510131836, -159.90408325195312, 9.818949699401855, -0.6453189253807068, -1.74652898311615, 1.7573930025100708, -17.111799240112305, 0.4584949016571045, 
279, 434593159, -148.4418182373047, -78.43267059326172, -159.55577087402344, 9.827982902526855, -0.6699671745300293, -1.6875197887420654, 1.7926896810531616, -17.194368362426758, 0.44965803623199463, 
280, 434601492, -148.82513427734375, -78.33134460449219, -159.18214416503906, 9.830574035644531, -0.6756823658943176, -1.6879208087921143, 1.6699715852737427, -17.42153549194336, 0.3842647671699524, 
281, 434609825, -149.1514892578125, -78.21209716796875, -158.83985900878906, 9.835769653320312, -0.6751748323440552, -1.6822644472122192, 1.7678436040878296, -17.521717071533203, 0.4350322484970093, 
282, 434618158, -149.52761840820312, -78.10783386230469, -158.47445678710938, 9.865499496459961, -0.685900866985321, -1.6106634140014648, 1.8490921258926392, -17.72765350341797, 0.3628769516944885, 
283, 434626491, -149.84487915039062, -77.9878921508789, -158.14122009277344, 9.874900817871094, -0.7027707695960999, -1.5665143728256226, 1.7742085456848145, -17.5640926361084, 0.3365582823753357, 
284, 434634824, -150.20440673828125, -77.88478088378906, -157.79058837890625, 9.859493255615234, -0.6999369263648987, -1.5504181385040283, 1.7471343278884888, -17.45372200012207, 0.3445242941379547, 
285, 434643157, -150.5002899169922, -77.76593780517578, -157.47817993164062, 9.867040634155273, -0.7021312713623047, -1.5222914218902588, 1.862270712852478, -17.28000831604004, 0.4184470772743225, 
286, 434651490, -150.83956909179688, -77.66419982910156, -157.15029907226562, 9.869537353515625, -0.684097945690155, -1.5256016254425049, 1.7302165031433105, -17.13994789123535, 0.41753774881362915, 
287, 434659823, -151.11849975585938, -77.54753875732422, -156.85597229003906, 9.88259506225586, -0.6706642508506775, -1.5326536893844604, 1.7657943964004517, -16.8864688873291, 0.3959192931652069, 
288, 434668156, -151.43905639648438, -77.44921875, -156.5449981689453, 9.871543884277344, -0.6947699189186096, -1.4790253639221191, 1.880302906036377, -16.648025512695312, 0.345241516828537, 
289, 434676489, -151.69541931152344, -77.3360366821289, -156.2731475830078, 9.878104209899902, -0.7027737498283386, -1.467390537261963, 1.8260778188705444, -16.311073303222656, 0.4440613090991974, 
290, 434684822, -151.9904327392578, -77.24120330810547, -155.9888458251953, 9.886932373046875, -0.6875244975090027, -1.4453364610671997, 1.9287137985229492, -16.042146682739258, 0.4821496307849884, 
291, 434693155, -152.2282257080078, -77.1325454711914, -155.7352294921875, 9.894919395446777, -0.6902499198913574, -1.463344693183899, 1.9069929122924805, -15.664081573486328, 0.37943655252456665, 
292, 434701488, -152.5012969970703, -77.04290008544922, -155.47328186035156, 9.891879081726074, -0.6955639123916626, -1.4608283042907715, 1.8650879859924316, -15.310065269470215, 0.5160373449325562, 
293, 434709821, -152.71580505371094, -76.93929290771484, -155.24290466308594, 9.906864166259766, -0.7004753947257996, -1.463449478149414, 1.9753575325012207, -14.883744239807129, 0.4413718283176422, 
294, 434718154, -152.96519470214844, -76.85585021972656, -155.00474548339844, 9.894779205322266, -0.673470139503479, -1.4405736923217773, 2.0396487712860107, -14.45280647277832, 0.5281527638435364, 
295, 434726487, -153.1524658203125, -76.75924682617188, -154.80197143554688, 9.880969047546387, -0.6926539540290833, -1.4313527345657349, 2.0044679641723633, -13.834367752075195, 0.5522942543029785, 
296, 434734820, -153.37588500976562, -76.68389892578125, -154.5915985107422, 9.896747589111328, -0.6894528865814209, -1.4679569005966187, 2.0878677368164062, -13.35010051727295, 0.5751164555549622, 
297, 434743153, -153.5386962890625, -76.59483337402344, -154.4127960205078, 9.884832382202148, -0.7044697403907776, -1.4096957445144653, 2.1436684131622314, -12.771439552307129, 0.5965428352355957, 
298, 434751486, -153.7390899658203, -76.52831268310547, -154.2244110107422, 9.8878755569458, -0.7057802081108093, -1.426063895225525, 2.1835238933563232, -12.210152626037598, 0.5457753539085388, 
299, 434759819, -153.8788299560547, -76.44683837890625, -154.0686798095703, 9.878108024597168, -0.6949921250343323, -1.3805692195892334, 2.216540813446045, -11.69597339630127, 0.6562240123748779, 
300, 434768152, -154.05027770996094, -76.38912200927734, -153.90863037109375, 9.887826919555664, -0.704477846622467, -1.3839457035064697, 2.304577112197876, -10.990839004516602, 0.7067865133285522, 
301, 434776485, -154.1647186279297, -76.31761169433594, -153.7779083251953, 9.870024681091309, -0.7074930667877197, -1.3729724884033203, 2.3344433307647705, -10.340210914611816, 0.6816332340240479, 
302, 434784818, -154.3119659423828, -76.27088928222656, -153.64492797851562, 9.911945343017578, -0.6744474172592163, -1.309237003326416, 2.3743882179260254, -9.589469909667969, 0.6805958151817322, 
303, 434793151, -154.39649963378906, -76.2101058959961, -153.54344177246094, 9.908262252807617, -0.6881547570228577, -1.3168978691101074, 2.5179052352905273, -8.843405723571777, 0.8183749318122864, 
304, 434801484, -154.51507568359375, -76.17584991455078, -153.4362335205078, 9.890190124511719, -0.6922040581703186, -1.3099443912506104, 2.5035481452941895, -7.988515853881836, 0.7262531518936157, 
305, 434809817, -154.57485961914062, -76.12751007080078, -153.35862731933594, 9.903867721557617, -0.6938343048095703, -1.3169044256210327, 2.7137129306793213, -7.2112274169921875, 0.7553766965866089, 
306, 434818150, -154.6675262451172, -76.10572052001953, -153.27662658691406, 9.919605255126953, -0.6867374181747437, -1.3260107040405273, 2.6685421466827393, -6.41266393661499, 0.7211430668830872, 
307, 434826483, -154.70419311523438, -76.06975555419922, -153.2231903076172, 9.896099090576172, -0.6853811740875244, -1.290848731994629, 2.6762523651123047, -5.5937910079956055, 0.7364349961280823, 
308, 434834816, -154.77154541015625, -76.0608901977539, -153.16859436035156, 9.905055046081543, -0.6832981109619141, -1.323656439781189, 2.7391223907470703, -4.780205726623535, 0.7139327526092529, 
309, 434843149, -154.77877807617188, -76.03761291503906, -153.14434814453125, 9.898055076599121, -0.6813173294067383, -1.2903697490692139, 2.825211763381958, -3.8585283756256104, 0.840697705745697, 
310, 434851482, -154.81649780273438, -76.04121398925781, -153.117919921875, 9.878280639648438, -0.6882045269012451, -1.2974563837051392, 2.8812944889068604, -3.1511785984039307, 0.8515965342521667, 
311, 434859815, -154.7993621826172, -76.03089141845703, -153.11862182617188, 9.906231880187988, -0.6865512132644653, -1.295816421508789, 2.8499162197113037, -2.1553220748901367, 0.8371755480766296, 
312, 434868148, -154.81094360351562, -76.048828125, -153.11952209472656, 9.891645431518555, -0.6768010258674622, -1.2979885339736938, 2.9282450675964355, -1.3654309511184692, 0.8325907588005066, 
313, 434876481, -154.76876831054688, -76.04996490478516, -153.1437530517578, 9.902427673339844, -0.6809440851211548, -1.3133008480072021, 3.131648063659668, -0.6249873638153076, 0.8692959547042847, 
314, 434884814, -154.74908447265625, -76.08023834228516, -153.1737060546875, 9.892435073852539, -0.691556990146637, -1.2847293615341187, 3.1827220916748047, 0.261598140001297, 0.9962911009788513, 
315, 434893147, -154.6773681640625, -76.09417724609375, -153.22776794433594, 9.905550956726074, -0.6710677742958069, -1.2919187545776367, 3.2071714401245117, 1.1173827648162842, 0.9984046220779419, 
316, 434901480, -154.6311798095703, -76.13776397705078, -153.2867889404297, 9.912201881408691, -0.6830493211746216, -1.277513861656189, 3.274280309677124, 1.952713966369629, 1.0039371252059937, 
317, 434909813, -154.53639221191406, -76.16539001464844, -153.36448669433594, 9.898231506347656, -0.6713744401931763, -1.2610422372817993, 3.2331058979034424, 2.883599281311035, 0.901032030582428, 
318, 434918146, -154.46261596679688, -76.22238159179688, -153.44944763183594, 9.888538360595703, -0.7013799548149109, -1.3118489980697632, 3.346038579940796, 3.6502845287323, 1.028206467628479, 
319, 434926479, -154.33934020996094, -76.26206970214844, -153.55455017089844, 9.899669647216797, -0.6852232217788696, -1.3189613819122314, 3.4605085849761963, 4.51394510269165, 0.9592018127441406, 
320, 434934812, -154.2389373779297, -76.33106231689453, -153.66600036621094, 9.884319305419922, -0.6981196999549866, -1.2877874374389648, 3.5903475284576416, 5.17556095123291, 1.0246461629867554, 
321, 434943145, -154.08656311035156, -76.38247680664062, -153.80026245117188, 9.892399787902832, -0.6840165257453918, -1.3195947408676147, 3.5612497329711914, 6.122827053070068, 1.047417402267456, 
322, 434951478, -153.95469665527344, -76.4632568359375, -153.9436492919922, 9.887807846069336, -0.6973873376846313, -1.3373717069625854, 3.700899124145508, 6.747098445892334, 1.1492596864700317, 
323, 434959811, -153.77371215820312, -76.52438354492188, -154.10633850097656, 9.906431198120117, -0.6835781335830688, -1.3906956911087036, 3.6830451488494873, 7.498745918273926, 1.1827117204666138, 
324, 434968144, -153.6129150390625, -76.61600494384766, -154.27760314941406, 9.870025634765625, -0.7207791209220886, -1.3863320350646973, 3.711080551147461, 8.186399459838867, 1.2357203960418701, 
325, 434976477, -153.40493774414062, -76.6866455078125, -154.46609497070312, 9.902913093566895, -0.6954723000526428, -1.403814673423767, 3.904877185821533, 8.814204216003418, 1.2186357975006104, 
326, 434984810, -153.22250366210938, -76.78727722167969, -154.66070556640625, 9.887788772583008, -0.7001127600669861, -1.4236091375350952, 3.8983590602874756, 9.328936576843262, 1.1421902179718018, 
327, 434993143, -152.99244689941406, -76.86570739746094, -154.87220764160156, 9.881352424621582, -0.6886444091796875, -1.3916808366775513, 3.8666999340057373, 9.901773452758789, 1.2293553352355957, 
328, 435001476, -152.78448486328125, -76.97442626953125, -155.09088134765625, 9.895374298095703, -0.7010023593902588, -1.4288691282272339, 3.986830472946167, 10.42120361328125, 1.171364665031433, 
329, 435009809, -152.52565002441406, -77.06173706054688, -155.3306121826172, 9.893587112426758, -0.695088267326355, -1.4191985130310059, 4.010524272918701, 11.152515411376953, 1.262064814567566, 
330, 435018142, -152.28469848632812, -77.1778335571289, -155.58177185058594, 9.885807037353516, -0.6817561388015747, -1.4351155757904053, 4.14712381362915, 11.526790618896484, 1.3483588695526123, 
331, 435026475, -152.00083923339844, -77.27120971679688, -155.84605407714844, 9.88427734375, -0.7121610045433044, -1.4562828540802002, 4.130500793457031, 12.058364868164062, 1.301997423171997, 
332, 435034808, -151.73513793945312, -77.3944091796875, -156.125244140625, 9.883155822753906, -0.7091612219810486, -1.4757521152496338, 4.024432182312012, 12.501104354858398, 1.342391014099121, 
333, 435043141, -151.41940307617188, -77.49345397949219, -156.42230224609375, 9.896378517150879, -0.701984167098999, -1.4485853910446167, 4.099174976348877, 13.000712394714355, 1.503914475440979, 
334, 435051474, -151.12078857421875, -77.62181854248047, -156.73526000976562, 9.877723693847656, -0.7019567489624023, -1.4774832725524902, 4.191795825958252, 13.356982231140137, 1.5100364685058594, 
335, 435059807, -150.782958984375, -77.7240982055664, -157.053955078125, 9.876420021057129, -0.7053434252738953, -1.4609596729278564, 4.198493957519531, 13.546513557434082, 1.5260323286056519, 
336, 435068140, -150.4626007080078, -77.85576629638672, -157.38467407226562, 9.87596607208252, -0.7017906904220581, -1.4971413612365723, 4.2751569747924805, 13.865562438964844, 1.4912736415863037, 
337, 435076473, -150.0974578857422, -77.96192932128906, -157.73126220703125, 9.88355827331543, -0.6885480880737305, -1.5148900747299194, 4.179219722747803, 14.224433898925781, 1.6037590503692627, 
338, 435084806, -149.74974060058594, -78.09629821777344, -158.0902099609375, 9.871390342712402, -0.69959956407547, -1.5132906436920166, 4.253795146942139, 14.411736488342285, 1.591835379600525, 
339, 435093139, -149.35690307617188, -78.20398712158203, -158.4626922607422, 9.876814842224121, -0.7043211460113525, -1.5256201028823853, 4.434733867645264, 14.623208045959473, 1.7229290008544922, 
340, 435101472, -148.98269653320312, -78.33993530273438, -158.84521484375, 9.870933532714844, -0.6980606317520142, -1.5286825895309448, 4.372196674346924, 14.79611587524414, 1.6675639152526855, 
341, 435109805, -148.57130432128906, -78.44931030273438, -159.2372283935547, 9.893823623657227, -0.6921137571334839, -1.5620933771133423, 4.345712184906006, 14.95925521850586, 1.648993730545044, 
342, 435118138, -148.17868041992188, -78.58522033691406, -159.63922119140625, 9.857389450073242, -0.7076866030693054, -1.6092231273651123, 4.28120231628418, 14.930296897888184, 1.6676021814346313, 
343, 435126471, -147.75381469726562, -78.69233703613281, -160.04562377929688, 9.838934898376465, -0.6841581463813782, -1.6487722396850586, 4.2359418869018555, 14.81393051147461, 1.690194010734558, 
344, 435134804, -147.348388671875, -78.82520294189453, -160.4595947265625, 9.840485572814941, -0.6737064719200134, -1.7073067426681519, 4.365191459655762, 14.681146621704102, 1.6885035037994385, 
345, 435143137, -146.90945434570312, -78.92958068847656, -160.87985229492188, 9.827518463134766, -0.6762074828147888, -1.7328399419784546, 4.256548881530762, 14.608672142028809, 1.7449957132339478, 
346, 435151470, -146.49020385742188, -79.05923461914062, -161.3092803955078, 9.828957557678223, -0.6634612083435059, -1.7028326988220215, 4.2939453125, 14.475964546203613, 1.7539094686508179, 
347, 435159803, -146.043701171875, -79.15989685058594, -161.7363739013672, 9.815320014953613, -0.6658417582511902, -1.7400673627853394, 4.334621429443359, 14.21851634979248, 1.724453330039978, 
348, 435168136, -145.6245574951172, -79.28397369384766, -162.16468811035156, 9.821416854858398, -0.669687807559967, -1.7327977418899536, 4.304728984832764, 13.835888862609863, 1.710518717765808, 
349, 435176469, -145.18089294433594, -79.37771606445312, -162.58956909179688, 9.805021286010742, -0.6736234426498413, -1.7577414512634277, 4.233341693878174, 13.418121337890625, 1.7601337432861328, 
350, 435184802, -144.76791381835938, -79.49552917480469, -163.0119171142578, 9.792243957519531, -0.6627622842788696, -1.7710493803024292, 4.201247692108154, 13.095281600952148, 1.643076777458191, 
351, 435193135, -144.33143615722656, -79.58409118652344, -163.42904663085938, 9.794777870178223, -0.6480462551116943, -1.7792086601257324, 4.264693737030029, 12.71931266784668, 1.6206127405166626, 
352, 435201468, -143.9236297607422, -79.69620513916016, -163.8459014892578, 9.79072093963623, -0.6379181742668152, -1.771580696105957, 4.100224018096924, 12.426054000854492, 1.6030157804489136, 
353, 435209801, -143.4966278076172, -79.77809143066406, -164.25413513183594, 9.776632308959961, -0.651944100856781, -1.7809637784957886, 4.142693519592285, 11.862415313720703, 1.6140557527542114, 
354, 435218134, -143.10003662109375, -79.88223266601562, -164.66152954101562, 9.788168907165527, -0.658580482006073, -1.7694042921066284, 3.956477165222168, 11.506426811218262, 1.647891879081726, 
355, 435226467, -142.6903076171875, -79.95799255371094, -165.05316162109375, 9.771123886108398, -0.6499916911125183, -1.7905983924865723, 4.010293006896973, 10.973114013671875, 1.4805028438568115, 
356, 435234800, -142.32440185546875, -80.05335235595703, -165.42877197265625, 9.766135215759277, -0.6578134298324585, -1.807378888130188, 3.889342784881592, 10.247949600219727, 1.4882640838623047, 
357, 435243133, -141.94195556640625, -80.1199951171875, -165.7940216064453, 9.763904571533203, -0.6507166624069214, -1.8238286972045898, 3.852919101715088, 9.71074104309082, 1.4475629329681396, 
358, 435251466, -141.604248046875, -80.20732879638672, -166.14002990722656, 9.7642240524292, -0.6587580442428589, -1.8073601722717285, 3.9710519313812256, 9.10457992553711, 1.3634202480316162, 
359, 435259799, -141.25350952148438, -80.26566314697266, -166.47337341308594, 9.764331817626953, -0.6531107425689697, -1.8457657098770142, 3.808389186859131, 8.458038330078125, 1.3482950925827026, 
360, 435268132, -140.94419860839844, -80.34353637695312, -166.7920684814453, 9.757657051086426, -0.6608161926269531, -1.8549525737762451, 3.7924818992614746, 7.887916564941406, 1.4399425983428955, 
361, 435276465, -140.62571716308594, -80.39305877685547, -167.09329223632812, 9.74437141418457, -0.6505876779556274, -1.8710707426071167, 3.733915090560913, 7.177390098571777, 1.3415199518203735, 
362, 435284798, -140.36439514160156, -80.46131896972656, -167.36439514160156, 9.74954891204834, -0.6633743643760681, -1.8522902727127075, 3.612631320953369, 6.427712440490723, 1.2858858108520508, 
363, 435293131, -140.09161376953125, -80.50121307373047, -167.6205596923828, 9.732565879821777, -0.6533167362213135, -1.8630529642105103, 3.5825862884521484, 5.682338237762451, 1.2572234869003296, 
364, 435301464, -139.87290954589844, -80.55970764160156, -167.84854125976562, 9.738683700561523, -0.6478734612464905, -1.88260817527771, 3.5794613361358643, 5.019596099853516, 1.2839903831481934, 
365, 435309797, -139.64515686035156, -80.59017181396484, -168.06008911132812, 9.706995964050293, -0.6599433422088623, -1.8981273174285889, 3.4579477310180664, 4.2161545753479, 1.234631896018982, 
366, 435318130, -139.47885131835938, -80.63777160644531, -168.2351837158203, 9.713277816772461, -0.6439165472984314, -1.9236165285110474, 3.5855321884155273, 3.4334604740142822, 1.2531508207321167, 
367, 435326463, -139.30723571777344, -80.65737915039062, -168.3904266357422, 9.709837913513184, -0.641941487789154, -1.8940165042877197, 3.3834102153778076, 2.481071949005127, 1.2033569812774658, 
368, 435334796, -139.21014404296875, -80.69291687011719, -168.49851989746094, 9.705137252807617, -0.6610918641090393, -1.900559902191162, 3.323575019836426, 1.5498918294906616, 1.164884090423584, 
369, 435343129, -139.09458923339844, -80.70297241210938, -168.59808349609375, 9.712115287780762, -0.6697596311569214, -1.9018105268478394, 3.2673263549804688, 0.9094589948654175, 1.1013354063034058, 
370, 435351462, -139.0568389892578, -80.7283706665039, -168.6472930908203, 9.69189739227295, -0.6491920948028564, -1.9368677139282227, 3.23868989944458, -0.03730713576078415, 1.086837649345398, 
371, 435359795, -139.00599670410156, -80.72794342041016, -168.68247985839844, 9.720271110534668, -0.6453484296798706, -1.9230470657348633, 3.137436866760254, -0.8703333139419556, 0.9860712289810181, 
372, 435368128, -139.03659057617188, -80.74286651611328, -168.66375732421875, 9.72960376739502, -0.6432570815086365, -1.9182467460632324, 3.0557780265808105, -1.74124276638031, 0.9325372576713562, 
373, 435376461, -139.0457763671875, -80.73138427734375, -168.64002990722656, 9.711273193359375, -0.6538332104682922, -1.931960105895996, 2.920816421508789, -2.6234991550445557, 1.0016701221466064, 
374, 435384794, -139.1395263671875, -80.73492431640625, -168.5576171875, 9.713459968566895, -0.6537988781929016, -1.9105311632156372, 2.9771170616149902, -3.4724066257476807, 0.9103555679321289, 
375, 435393127, -139.20712280273438, -80.7129135131836, -168.47544860839844, 9.721475601196289, -0.6667754650115967, -1.8995907306671143, 2.849583864212036, -4.319597244262695, 0.9686535000801086, 
376, 435401460, -139.3603973388672, -80.70557403564453, -168.33480834960938, 9.71878433227539, -0.6454927325248718, -1.8891890048980713, 2.7637248039245605, -5.107081413269043, 0.909228503704071, 
377, 435409793, -139.49070739746094, -80.67350769042969, -168.19064331054688, 9.733796119689941, -0.6360048055648804, -1.9109857082366943, 2.67466402053833, -6.025018692016602, 0.8247014880180359, 
378, 435418126, -139.70350646972656, -80.65571594238281, -167.9901580810547, 9.720844268798828, -0.6482253670692444, -1.9077630043029785, 2.722895622253418, -6.731869220733643, 0.8180161714553833, 
379, 435426459, -139.8812255859375, -80.61456298828125, -167.79786682128906, 9.726309776306152, -0.6463136672973633, -1.881543517112732, 2.6863958835601807, -7.488028526306152, 0.7800047993659973, 
380, 435434792, -140.15069580078125, -80.58614349365234, -167.54171752929688, 9.735735893249512, -0.6588289737701416, -1.8638371229171753, 2.6026625633239746, -8.3330659866333, 0.7442984580993652, 
381, 435443125, -140.37557983398438, -80.53489685058594, -167.30279541015625, 9.731232643127441, -0.6501279473304749, -1.8588588237762451, 2.5554044246673584, -9.024189949035645, 0.7723972797393799, 
382, 435451458, -140.69065856933594, -80.49718475341797, -167.00143432617188, 9.760025024414062, -0.6496223211288452, -1.8369989395141602, 2.4528703689575195, -9.686164855957031, 0.6763439178466797, 
383, 435459791, -140.96041870117188, -80.43804931640625, -166.71812438964844, 9.756129264831543, -0.6585180163383484, -1.829084038734436, 2.4128615856170654, -10.3623046875, 0.5929952263832092, 
384, 435468124, -141.31382751464844, -80.39025115966797, -166.3788299560547, 9.77014446258545, -0.6505492329597473, -1.8152943849563599, 2.3556387424468994, -11.050251007080078, 0.715584933757782, 
385, 435476457, -141.61468505859375, -80.32167053222656, -166.06427001953125, 9.753437995910645, -0.6626613140106201, -1.8320380449295044, 2.378845691680908, -11.680413246154785, 0.6564417481422424, 
386, 435484790, -142.0048065185547, -80.26507568359375, -165.68727111816406, 9.756368637084961, -0.6613765358924866, -1.8088998794555664, 2.3577651977539062, -12.315108299255371, 0.6058279871940613, 
387, 435493123, -142.33889770507812, -80.1891098022461, -165.34030151367188, 9.771588325500488, -0.6601057052612305, -1.826385498046875, 2.2277472019195557, -12.833950996398926, 0.4832126796245575, 
388, 435501456, -142.75634765625, -80.1251449584961, -164.93740844726562, 9.779946327209473, -0.6389424204826355, -1.7972362041473389, 2.1905040740966797, -13.322976112365723, 0.4952000379562378, 
389, 435509789, -143.11253356933594, -80.0408706665039, -164.5684051513672, 9.768904685974121, -0.6807254552841187, -1.773584246635437, 2.172523021697998, -13.967304229736328, 0.4902821481227875, 
390, 435518122, -143.55242919921875, -79.96833801269531, -164.14447021484375, 9.770383834838867, -0.6567175984382629, -1.7966172695159912, 2.0098466873168945, -14.418036460876465, 0.5005021691322327, 
391, 435526455, -143.92425537109375, -79.87731170654297, -163.75994873046875, 9.783819198608398, -0.6697953939437866, -1.7941102981567383, 2.117349863052368, -14.888853073120117, 0.4352627098560333, 
392, 435534788, -144.37646484375, -79.797607421875, -163.3245391845703, 9.786941528320312, -0.6608741283416748, -1.7766815423965454, 2.016097068786621, -15.260259628295898, 0.47317183017730713, 
393, 435543121, -144.75389099121094, -79.69966125488281, -162.93508911132812, 9.815207481384277, -0.6672695279121399, -1.7539339065551758, 2.0171213150024414, -15.704461097717285, 0.5267568230628967, 
394, 435551454, -145.21412658691406, -79.61406707763672, -162.49005126953125, 9.812116622924805, -0.6680938005447388, -1.7633097171783447, 2.0280585289001465, -15.984527587890625, 0.4060625433921814, 
395, 435559787, -145.6015625, -79.5115737915039, -162.0907440185547, 9.79739761352539, -0.6455036401748657, -1.7295790910720825, 1.955365538597107, -16.366437911987305, 0.33557218313217163, 
396, 435568120, -146.06808471679688, -79.42009735107422, -161.64222717285156, 9.835349082946777, -0.6485528349876404, -1.7304109334945679, 1.9246026277542114, -16.655309677124023, 0.3278878331184387, 
397, 435576453, -146.45681762695312, -79.31237030029297, -161.24191284179688, 9.810369491577148, -0.6818506121635437, -1.7542283535003662, 1.905289649963379, -16.983558654785156, 0.3084978759288788, 
398, 435584786, -146.91778564453125, -79.21630096435547, -160.79722595214844, 9.822553634643555, -0.6683793067932129, -1.681694507598877, 1.9987819194793701, -17.101747512817383, 0.3399266302585602, 
399, 435593119, -147.2992706298828, -79.10527038574219, -160.40426635742188, 9.838723182678223, -0.6764750480651855, -1.6564106941223145, 1.8829798698425293, -17.32048988342285, 0.2957932949066162, 
400, 435601452, -147.75135803222656, -79.00565338134766, -159.96873474121094, 9.846160888671875, -0.6982438564300537, -1.6168755292892456, 1.8967982530593872, -17.4085636138916, 0.3612247407436371, 
401, 435609785, -148.1194610595703, -78.89163970947266, -159.58872985839844, 9.849778175354004, -0.7039262652397156, -1.6137062311172485, 1.9440054893493652, -17.554000854492188, 0.36742347478866577, 
402, 435618118, -148.55250549316406, -78.78990936279297, -159.1727752685547, 9.884498596191406, -0.6911226511001587, -1.5499956607818604, 1.9343233108520508, -17.442731857299805, 0.46104347705841064, 
403, 435626451, -148.89561462402344, -78.67644500732422, -158.81814575195312, 9.880829811096191, -0.6922906041145325, -1.5336525440216064, 1.9325820207595825, -17.269378662109375, 0.47628408670425415, 
404, 435634784, -149.3059844970703, -78.57538604736328, -158.42568969726562, 9.865715026855469, -0.6855819821357727, -1.528266429901123, 1.9908159971237183, -17.191268920898438, 0.4983251094818115, 
405, 435643117, -149.62872314453125, -78.46186065673828, -158.09144592285156, 9.861140251159668, -0.6985598802566528, -1.5150946378707886, 1.9624093770980835, -17.106870651245117, 0.5606957674026489, 
406, 435651450, -150.01296997070312, -78.36216735839844, -157.7257537841797, 9.890722274780273, -0.6971184611320496, -1.5042990446090698, 1.8836711645126343, -16.796192169189453, 0.6289063692092896, 
407, 435659783, -150.308837890625, -78.25179290771484, -157.41830444335938, 9.882614135742188, -0.719783365726471, -1.503078579902649, 2.022167921066284, -16.526630401611328, 0.6242191195487976, 
408, 435668116, -150.6686553955078, -78.15612030029297, -157.07757568359375, 9.88067626953125, -0.707642674446106, -1.4521723985671997, 2.026752471923828, -16.174816131591797, 0.5702753663063049, 
409, 435676449, -150.93907165527344, -78.04905700683594, -156.79537963867188, 9.903247833251953, -0.7182353138923645, -1.4673513174057007, 2.0877013206481934, -15.943608283996582, 0.7000499963760376, 
410, 435684782, -151.26707458496094, -77.95729064941406, -156.48690795898438, 9.890674591064453, -0.7071767449378967, -1.4644759893417358, 2.11133074760437, -15.45572280883789, 0.7348982095718384, 
411, 435693115, -151.51144409179688, -77.85636138916016, -156.23150634765625, 9.88431453704834, -0.6922765970230103, -1.4587897062301636, 2.0557987689971924, -15.036161422729492, 0.6963487267494202, 
412, 435701448, -151.80877685546875, -77.77024841308594, -155.95298767089844, 9.874810218811035, -0.702820897102356, -1.4493870735168457, 2.194397449493408, -14.565088272094727, 0.8390968441963196, 
413, 435709781, -152.02325439453125, -77.6750717163086, -155.72682189941406, 9.882349967956543, -0.6945797801017761, -1.4333511590957642, 2.2032854557037354, -14.123984336853027, 0.8225243091583252, 
414, 435718114, -152.29595947265625, -77.59522247314453, -155.47215270996094, 9.877240180969238, -0.6931449174880981, -1.4571422338485718, 2.2810251712799072, -13.687880516052246, 0.8282620906829834, 
415, 435726447, -152.48313903808594, -77.50636291503906, -155.27284240722656, 9.877601623535156, -0.697303831577301, -1.4481918811798096, 2.3299989700317383, -13.16947078704834, 0.9123791456222534, 
416, 435734780, -152.72607421875, -77.43376922607422, -155.050048828125, 9.901758193969727, -0.7041432857513428, -1.4260408878326416, 2.2290024757385254, -12.615129470825195, 0.9584336876869202, 
417, 435743113, -152.8881378173828, -77.35259246826172, -154.87620544433594, 9.910327911376953, -0.6990447044372559, -1.4032994508743286, 2.357841730117798, -12.081249237060547, 0.9463948607444763, 
418, 435751446, -153.10238647460938, -77.28874969482422, -154.6814727783203, 9.907621383666992, -0.6922925114631653, -1.3838201761245728, 2.4535880088806152, -11.421991348266602, 0.9761331081390381, 
419, 435759779, -153.2324676513672, -77.21826171875, -154.5397186279297, 9.886146545410156, -0.6870480179786682, -1.3660751581192017, 2.4401917457580566, -10.578207969665527, 1.0177562236785889, 
420, 435768112, -153.41595458984375, -77.16402435302734, -154.37489318847656, 9.908074378967285, -0.7059748768806458, -1.3851577043533325, 2.599269151687622, -10.100540161132812, 1.0657700300216675, 
421, 435776445, -153.51876831054688, -77.10202026367188, -154.2596435546875, 9.889095306396484, -0.6952532529830933, -1.32518470287323, 2.612959384918213, -9.371748924255371, 1.1206228733062744, 
422, 435784778, -153.6680908203125, -77.05973815917969, -154.13082885742188, 9.892176628112793, -0.6853151321411133, -1.3217742443084717, 2.6548385620117188, -8.472024917602539, 1.1741310358047485, 
423, 435793111, -153.74310302734375, -77.00801849365234, -154.0433807373047, 9.907159805297852, -0.6792006492614746, -1.3244032859802246, 2.709089517593384, -7.945804119110107, 1.1914716958999634, 
424, 435801444, -153.8678741455078, -76.97511291503906, -153.93572998046875, 9.903964042663574, -0.6809586882591248, -1.2934218645095825, 2.778632402420044, -7.254375457763672, 1.2137819528579712, 
425, 435809777, -153.9116668701172, -76.9350814819336, -153.87841796875, 9.905010223388672, -0.6860530972480774, -1.2971625328063965, 2.937530040740967, -6.34026575088501, 1.279904842376709, 
426, 435818110, -154.00523376464844, -76.91557312011719, -153.80421447753906, 9.920038223266602, -0.6952809691429138, -1.3178311586380005, 2.92783522605896, -5.498978614807129, 1.2161381244659424, 
427, 435826443, -154.01768493652344, -76.88862609863281, -153.77842712402344, 9.897539138793945, -0.6895214319229126, -1.2969274520874023, 3.0166780948638916, -4.565839767456055, 1.354391098022461, 
428, 435834776, -154.07589721679688, -76.8821029663086, -153.73867797851562, 9.907877922058105, -0.6794306635856628, -1.2822694778442383, 3.0866944789886475, -3.753586769104004, 1.3762527704238892, 
429, 435843109, -154.06361389160156, -76.86710357666016, -153.73692321777344, 9.896468162536621, -0.6871037483215332, -1.3066952228546143, 3.1949658393859863, -2.9933435916900635, 1.3123197555541992, 
430, 435851442, -154.09640502929688, -76.87303161621094, -153.7224884033203, 9.903648376464844, -0.7120015025138855, -1.2693793773651123, 3.1246674060821533, -2.1636085510253906, 1.3490889072418213, 
431, 435859775, -154.05421447753906, -76.87041473388672, -153.751220703125, 9.91063117980957, -0.6949213147163391, -1.294917106628418, 3.2246782779693604, -1.2967334985733032, 1.4158011674880981, 
432, 435868108, -154.0563507080078, -76.88953399658203, -153.76966857910156, 9.902376174926758, -0.6843868494033813, -1.3066233396530151, 3.267915725708008, -0.4399373233318329, 1.390033483505249, 
433, 435876441, -153.98757934570312, -76.89967346191406, -153.82521057128906, 9.885945320129395, -0.680689811706543, -1.306909441947937, 3.2935938835144043, 0.3928583860397339, 1.402289867401123, 
434, 435884774, -153.9591522216797, -76.93163299560547, -153.8718719482422, 9.911571502685547, -0.685795783996582, -1.2805819511413574, 3.393693447113037, 1.241765022277832, 1.4519298076629639, 
435, 435893107, -153.85894775390625, -76.95389556884766, -153.9576873779297, 9.909550666809082, -0.6790196895599365, -1.2984013557434082, 3.5336761474609375, 2.0573225021362305, 1.4949109554290771, 
436, 435901440, -153.80093383789062, -76.9985122680664, -154.03775024414062, 9.880805969238281, -0.6918160915374756, -1.3237950801849365, 3.5987489223480225, 2.8809611797332764, 1.4583208560943604, 
437, 435909773, -153.66929626464844, -77.03304290771484, -154.1558074951172, 9.914196968078613, -0.6900632977485657, -1.3246972560882568, 3.548621654510498, 3.7522289752960205, 1.6056283712387085, 
438, 435918106, -153.57980346679688, -77.0895004272461, -154.26318359375, 9.894457817077637, -0.6852680444717407, -1.3224687576293945, 3.707071542739868, 4.462640285491943, 1.5576785802841187, 
439, 435926439, -153.42306518554688, -77.13661193847656, -154.40565490722656, 9.917619705200195, -0.6975962519645691, -1.308938980102539, 3.705022096633911, 5.386597156524658, 1.4779412746429443, 
440, 435934772, -153.3018035888672, -77.20602416992188, -154.54446411132812, 9.896078109741211, -0.7052186727523804, -1.3391151428222656, 3.7999744415283203, 6.1663713455200195, 1.5649529695510864, 
441, 435943105, -153.11520385742188, -77.263427734375, -154.71624755859375, 9.899663925170898, -0.7111932039260864, -1.3633849620819092, 3.8720920085906982, 6.827949523925781, 1.5491362810134888, 
442, 435951438, -152.9661407470703, -77.34222412109375, -154.8822784423828, 9.895123481750488, -0.68177729845047, -1.3597335815429688, 3.8752927780151367, 7.434851169586182, 1.6294111013412476, 
443, 435959771, -152.7493438720703, -77.40924072265625, -155.08416748046875, 9.892276763916016, -0.6885179281234741, -1.3770074844360352, 3.9626760482788086, 8.190690994262695, 1.6379280090332031, 
444, 435968104, -152.57093811035156, -77.4988021850586, -155.2820587158203, 9.897860527038574, -0.702092707157135, -1.3968626260757446, 3.9439902305603027, 8.866815567016602, 1.6070500612258911, 
445, 435976437, -152.32518005371094, -77.57452392578125, -155.5128936767578, 9.887285232543945, -0.7003716230392456, -1.4087907075881958, 4.044334411621094, 9.433159828186035, 1.6956112384796143, 
446, 435984770, -152.1162109375, -77.67202758789062, -155.74188232421875, 9.891489028930664, -0.6905478239059448, -1.4123591184616089, 4.048932075500488, 10.011747360229492, 1.7069711685180664, 
447, 435993103, -151.83981323242188, -77.75584411621094, -156.0032196044922, 9.918346405029297, -0.6866095066070557, -1.4094690084457397, 4.129271030426025, 10.615819931030273, 1.770020604133606, 
448, 436001436, -151.60415649414062, -77.86136627197266, -156.2553253173828, 9.89389705657959, -0.7088185548782349, -1.4577676057815552, 4.151094913482666, 11.104310989379883, 1.661621332168579, 
449, 436009769, -151.30075073242188, -77.9521713256836, -156.54457092285156, 9.893441200256348, -0.6875280141830444, -1.4488778114318848, 4.0851640701293945, 11.648330688476562, 1.786490559577942, 
450, 436018102, -151.03273010253906, -78.06361389160156, -156.83355712890625, 9.880773544311523, -0.6916995644569397, -1.4765143394470215, 4.203910827636719, 12.037436485290527, 1.8117461204528809, 
451, 436026435, -150.70285034179688, -78.15943145751953, -157.14845275878906, 9.906469345092773, -0.690390944480896, -1.4833261966705322, 4.246789455413818, 12.432843208312988, 1.8083395957946777, 
452, 436034768, -150.40670776367188, -78.27690887451172, -157.4600067138672, 9.883416175842285, -0.6882645487785339, -1.4811055660247803, 4.273044109344482, 12.91933536529541, 1.8019872903823853, 
453, 436043101, -150.0514678955078, -78.37791442871094, -157.80062866210938, 9.888480186462402, -0.7097143530845642, -1.4754544496536255, 4.2385172843933105, 13.223686218261719, 1.769508719444275, 
454, 436051434, -149.72242736816406, -78.49964904785156, -158.14956665039062, 9.891172409057617, -0.715605616569519, -1.4854155778884888, 4.267139911651611, 13.684675216674805, 1.9403938055038452, 
455, 436059767, -149.3336639404297, -78.60398864746094, -158.52272033691406, 9.860042572021484, -0.6927587985992432, -1.4735065698623657, 4.421952247619629, 13.889434814453125, 1.922540545463562, 
456, 436068100, -148.9830322265625, -78.72832489013672, -158.8904571533203, 9.876083374023438, -0.6956809759140015, -1.4999992847442627, 4.334595680236816, 14.116212844848633, 1.8727598190307617, 
457, 436076433, -148.57015991210938, -78.83512115478516, -159.28858947753906, 9.8746919631958, -0.7093430161476135, -1.5102604627609253, 4.349886894226074, 14.365643501281738, 1.9217339754104614, 
458, 436084766, -148.19851684570312, -78.96168518066406, -159.68101501464844, 9.889932632446289, -0.7174867391586304, -1.5255810022354126, 4.251925468444824, 14.509096145629883, 1.7947769165039062, 
459, 436093099, -147.76199340820312, -79.06920623779297, -160.10284423828125, 9.904773712158203, -0.6929771900177002, -1.5545072555541992, 4.375065803527832, 14.643379211425781, 1.9531370401382446, 
460, 436101432, -147.36160278320312, -79.19635009765625, -160.5203399658203, 9.877204895019531, -0.6952758431434631, -1.5801347494125366, 4.307981967926025, 14.815276145935059, 1.9071849584579468, 
461, 436109765, -146.90480041503906, -79.30399322509766, -160.9626922607422, 9.8453950881958, -0.6938543915748596, -1.6342724561691284, 4.356648921966553, 14.804492950439453, 1.926062822341919, 
462, 436118098, -146.49258422851562, -79.42906188964844, -161.39138793945312, 9.832552909851074, -0.6802437901496887, -1.6782864332199097, 4.282317161560059, 14.663792610168457, 1.8393584489822388, 
463, 436126431, -146.0243377685547, -79.5346908569336, -161.84523010253906, 9.839527130126953, -0.6767613887786865, -1.7020083665847778, 4.333442687988281, 14.63461971282959, 1.8568018674850464, 
464, 436134764, -145.5984649658203, -79.65727233886719, -162.28578186035156, 9.826431274414062, -0.657252311706543, -1.7005506753921509, 4.299888610839844, 14.492817878723145, 1.8225042819976807, 
465, 436143097, -145.12457275390625, -79.7587890625, -162.74559020996094, 9.819931983947754, -0.6657977104187012, -1.7413159608840942, 4.285031795501709, 14.202688217163086, 1.8139238357543945, 
466, 436151430, -144.70042419433594, -79.87672424316406, -163.1869354248047, 9.818853378295898, -0.663847804069519, -1.714077353477478, 4.279575347900391, 13.931378364562988, 1.6858010292053223, 
467, 436159763, -144.22344970703125, -79.97391510009766, -163.64999389648438, 9.81415843963623, -0.6406400203704834, -1.7473716735839844, 4.226784706115723, 13.694087982177734, 1.7745031118392944, 
468, 436168096, -143.8013916015625, -80.08605194091797, -164.08763122558594, 9.801074981689453, -0.6676981449127197, -1.7643831968307495, 4.271661281585693, 13.272403717041016, 1.6479945182800293, 
469, 436176429, -143.33021545410156, -80.17713165283203, -164.54458618164062, 9.804473876953125, -0.6621649861335754, -1.7735852003097534, 4.233008861541748, 12.93001651763916, 1.7138488292694092, 
470, 436184762, -142.9158477783203, -80.28279113769531, -164.9748077392578, 9.788841247558594, -0.6629189252853394, -1.7837380170822144, 4.197379112243652, 12.48793888092041, 1.6149007081985474, 
471, 436193095, -142.4581756591797, -80.36830139160156, -165.4195098876953, 9.777173042297363, -0.6355587244033813, -1.776119589805603, 4.053837776184082, 12.158053398132324, 1.5522228479385376, 
472, 436201428, -142.05609130859375, -80.4683837890625, -165.83905029296875, 9.78275203704834, -0.6451659798622131, -1.78777277469635, 3.9664671421051025, 11.768409729003906, 1.5080382823944092, 
473, 436209761, -141.61376953125, -80.54666137695312, -166.2679443359375, 9.763096809387207, -0.6478978395462036, -1.7764278650283813, 4.053223133087158, 11.182280540466309, 1.5146466493606567, 
474, 436218094, -141.23561096191406, -80.63877868652344, -166.6623077392578, 9.766874313354492, -0.6714023947715759, -1.7942402362823486, 4.0123419761657715, 10.66425609588623, 1.412548303604126, 
475, 436226427, -140.81826782226562, -80.70938110351562, -167.06671142578125, 9.766435623168945, -0.6546193957328796, -1.8186036348342896, 3.947614908218384, 10.084221839904785, 1.433603286743164, 
476, 436234760, -140.47076416015625, -80.7929458618164, -167.4296875, 9.766582489013672, -0.6585883498191833, -1.8094834089279175, 3.8932104110717773, 9.473630905151367, 1.3402905464172363, 
477, 436243093, -140.09104919433594, -80.85591888427734, -167.7970733642578, 9.746027946472168, -0.6677358746528625, -1.7982635498046875, 3.8128836154937744, 8.86331844329834, 1.223310112953186, 
478, 436251426, -139.77920532226562, -80.93138885498047, -168.12701416015625, 9.752679824829102, -0.637813150882721, -1.8156253099441528, 3.721082925796509, 8.291814804077148, 1.2348111867904663, 
479, 436259759, -139.4340362548828, -80.98542022705078, -168.4603271484375, 9.762711524963379, -0.646919846534729, -1.8390384912490845, 3.689781665802002, 7.554073333740234, 1.2434430122375488, 
480, 436268092, -139.16261291503906, -81.05238342285156, -168.74903869628906, 9.727015495300293, -0.648878812789917, -1.8385999202728271, 3.6434714794158936, 7.0308003425598145, 1.1507452726364136, 
481, 436276425, -138.8681640625, -81.09809875488281, -169.0320281982422, 9.744384765625, -0.6296681761741638, -1.8442105054855347, 3.561070442199707, 6.138836860656738, 1.0392976999282837, 
482, 436284758, -138.6526641845703, -81.15534210205078, -169.2645263671875, 9.72383975982666, -0.6577017307281494, -1.8825823068618774, 3.5022082328796387, 5.488899230957031, 1.0235191583633423, 
483, 436293091, -138.40689086914062, -81.19154357910156, -169.49887084960938, 9.733199119567871, -0.6657932996749878, -1.8560048341751099, 3.492090940475464, 4.660894393920898, 1.0134271383285522, 
484, 436301424, -138.2403106689453, -81.23888397216797, -169.68252563476562, 9.713135719299316, -0.6414657831192017, -1.872234582901001, 3.4348948001861572, 4.048073768615723, 1.0516436100006104, 
485, 436309757, -138.0570526123047, -81.26655578613281, -169.85562133789062, 9.71823787689209, -0.6572569012641907, -1.9260309934616089, 3.2495758533477783, 3.116381883621216, 0.8068484663963318, 
486, 436318090, -137.96292114257812, -81.3038101196289, -169.96807861328125, 9.713359832763672, -0.6484038829803467, -1.9088793992996216, 3.2653281688690186, 2.3235182762145996, 0.8420679569244385, 
487, 436326423, -137.83985900878906, -81.32119750976562, -170.0809783935547, 9.711925506591797, -0.6445516347885132, -1.9146689176559448, 3.1805455684661865, 1.4607030153274536, 0.7863826751708984, 
488, 436334756, -137.81336975097656, -81.34744262695312, -170.12646484375, 9.711915016174316, -0.6303157806396484, -1.9406944513320923, 3.1625382900238037, 0.5960432291030884, 0.8011875748634338, 
489, 436343089, -137.75550842285156, -81.35486602783203, -170.1736297607422, 9.704185485839844, -0.636979341506958, -1.9385179281234741, 3.163383722305298, -0.23215463757514954, 0.7026753425598145, 
490, 436351422, -137.8018798828125, -81.37215423583984, -170.14700317382812, 9.720332145690918, -0.6452763676643372, -1.9034233093261719, 2.927783966064453, -0.9948184490203857, 0.5677650570869446, 
491, 436359755, -137.8088836669922, -81.37081146240234, -170.13040161132812, 9.717348098754883, -0.6428935527801514, -1.9224766492843628, 2.9501454830169678, -1.7827637195587158, 0.5602089762687683, 
492, 436368088, -137.92347717285156, -81.37715911865234, -170.03468322753906, 9.704207420349121, -0.6468161344528198, -1.9146449565887451, 2.8880302906036377, -2.709998846054077, 0.529753565788269, 
493, 436376421, -138.00086975097656, -81.36455535888672, -169.9476776123047, 9.72018051147461, -0.6550065279006958, -1.8755643367767334, 2.8632359504699707, -3.6405131816864014, 0.5299073457717896, 
494, 436384754, -138.18836975097656, -81.35981750488281, -169.77951049804688, 9.721525192260742, -0.6483581066131592, -1.9111133813858032, 2.8278119564056396, -4.500741481781006, 0.4288848042488098, 
495, 436393087, -138.3289337158203, -81.33766174316406, -169.6306915283203, 9.707782745361328, -0.6498595476150513, -1.880868673324585, 2.6269702911376953, -5.241633415222168, 0.4483259916305542, 
496, 436401420, -138.5742950439453, -81.32262420654297, -169.4059295654297, 9.705538749694824, -0.6451871991157532, -1.878795862197876, 2.6184918880462646, -6.027374744415283, 0.4508104622364044, 
497, 436409753, -138.7673797607422, -81.29119110107422, -169.20469665527344, 9.716231346130371, -0.6536997556686401, -1.856687307357788, 2.5509986877441406, -6.711941719055176, 0.43475043773651123, 
498, 436418086, -139.07896423339844, -81.26668548583984, -168.9135284423828, 9.744929313659668, -0.6613040566444397, -1.867761254310608, 2.5054054260253906, -7.607723712921143, 0.23478011786937714, 
499, 436426419, -139.3332977294922, -81.22550964355469, -168.6511993408203, 9.732354164123535, -0.6639905571937561, -1.8398996591567993, 2.4503092765808105, -8.339752197265625, 0.28826260566711426, 
500, 436434752, -139.69540405273438, -81.19139099121094, -168.31155395507812, 9.746235847473145, -0.6595683097839355, -1.8640668392181396, 2.2664501667022705, -9.023704528808594, 0.204708993434906, 
501, 436443085, -139.99667358398438, -81.14124298095703, -168.0026397705078, 9.7420072555542, -0.6624293923377991, -1.8203036785125732, 2.347980260848999, -9.738083839416504, 0.21807961165905, 
502, 436451418, -140.40536499023438, -81.09796905517578, -167.615966796875, 9.747505187988281, -0.6354793906211853, -1.833635687828064, 2.276695728302002, -10.362456321716309, 0.07594621181488037, 
503, 436459751, -140.74449157714844, -81.04081726074219, -167.26998901367188, 9.74434757232666, -0.638359546661377, -1.8499035835266113, 2.201620578765869, -10.861116409301758, 0.06887669116258621, 
504, 436468084, -141.193359375, -80.98729705810547, -166.84327697753906, 9.748400688171387, -0.6460916996002197, -1.8363968133926392, 2.140453815460205, -11.769729614257812, 0.09548987448215485, 
505, 436476417, -141.56796264648438, -80.92048645019531, -166.46151733398438, 9.771489143371582, -0.6343992352485657, -1.7907308340072632, 2.1723177433013916, -12.231938362121582, 0.07182232290506363, 
506, 436484750, -142.0459442138672, -80.8585433959961, -166.0050048828125, 9.762524604797363, -0.6394811868667603, -1.8049662113189697, 2.1405563354492188, -12.887331008911133, 0.026408284902572632, 
507, 436493083, -142.44744873046875, -80.78377532958984, -165.59703063964844, 9.763303756713867, -0.6506519913673401, -1.8270965814590454, 2.0445799827575684, -13.344444274902344, 0.016444340348243713, 
508, 436501416, -142.94577026367188, -80.71392822265625, -165.12222290039062, 9.78479290008545, -0.6565633416175842, -1.804412603378296, 2.031440019607544, -13.874940872192383, 0.002817566739395261, 
509, 436509749, -143.3679656982422, -80.6312484741211, -164.69334411621094, 9.803118705749512, -0.6535970568656921, -1.786055326461792, 2.022474527359009, -14.415167808532715, -0.02134946547448635, 
510, 436518082, -143.8856201171875, -80.55433654785156, -164.19906616210938, 9.786468505859375, -0.6428999304771423, -1.7547051906585693, 1.9241673946380615, -14.776996612548828, -0.13715144991874695, 
511, 436526415, -144.32492065429688, -80.46514892578125, -163.75450134277344, 9.78173542022705, -0.6532493829727173, -1.754746675491333, 1.8044975996017456, -15.310155868530273, -0.13812479376792908, 
512, 436534748, -144.84959411621094, -80.380126953125, -163.25428771972656, 9.792850494384766, -0.6576690673828125, -1.749084234237671, 1.8565458059310913, -15.665578842163086, -0.0667635127902031, 
513, 436543081, -145.2905731201172, -80.28467559814453, -162.80873107910156, 9.784002304077148, -0.6525340676307678, -1.749516248703003, 1.7041665315628052, -16.01167869567871, -0.08999563008546829, 
514, 436551414, -145.8179473876953, -80.19445037841797, -162.30722045898438, 9.814678192138672, -0.6512382626533508, -1.7388675212860107, 1.7442272901535034, -16.249942779541016, -0.15528632700443268, 
515, 436559747, -146.25759887695312, -80.0937271118164, -161.86312866210938, 9.805534362792969, -0.6603984832763672, -1.7292958498001099, 1.677271842956543, -16.591537475585938, -0.105389803647995, 
516, 436568080, -146.7830352783203, -79.9963607788086, -161.3634796142578, 9.816433906555176, -0.6611401438713074, -1.6944502592086792, 1.7316250801086426, -17.00420570373535, -0.08377137035131454, 
517, 436576413, -147.2134552001953, -79.89137268066406, -160.92755126953125, 9.815497398376465, -0.6714315414428711, -1.6958765983581543, 1.8031402826309204, -17.007205963134766, -0.08820264041423798, 
518, 436584746, -147.7238311767578, -79.79078674316406, -160.44515991210938, 9.774713516235352, -0.674580454826355, -1.6788278818130493, 1.7011443376541138, -17.208375930786133, -0.0650985911488533, 
519, 436593079, -148.15130615234375, -79.67991638183594, -160.0129852294922, 10.012789726257324, -0.7025774121284485, -1.6625776290893555, 1.6846227645874023, -17.66033935546875, -0.047937050461769104, 
520, 436601412, -148.63656616210938, -79.57742309570312, -159.5535888671875, 9.886096000671387, -0.713292121887207, -1.59903883934021, 1.7328290939331055, -17.17559242248535, 0.05335446074604988, 
521, 436609745, -149.0263671875, -79.46755981445312, -159.15914916992188, 9.608869552612305, -0.6637101173400879, -1.57704758644104, 1.731702208518982, -17.204254150390625, 0.1750989854335785, 
522, 436618078, -149.49295043945312, -79.36394500732422, -158.71746826171875, 10.16068172454834, -0.6964229941368103, -1.4771325588226318, 1.7343146800994873, -17.16890525817871, 0.04923057183623314, 
523, 436626411, -149.86434936523438, -79.25672912597656, -158.34239196777344, 9.756650924682617, -0.7160332202911377, -1.5513458251953125, 1.6318573951721191, -16.791889190673828, 0.008324626833200455, 
524, 436634744, -150.30520629882812, -79.15354919433594, -157.9275665283203, 9.905917167663574, -0.6899802684783936, -1.5403234958648682, 1.7405134439468384, -16.895883560180664, 0.103404700756073, 
525, 436643077, -150.64138793945312, -79.04582214355469, -157.5867919921875, 9.880768775939941, -0.7093535661697388, -1.4980250597000122, 1.7881048917770386, -16.535980224609375, 0.36741068959236145, 
526, 436651410, -151.04632568359375, -78.94540405273438, -157.21226501464844, 9.829928398132324, -0.6941108703613281, -1.466982364654541, 1.8316230773925781, -16.278093338012695, 0.26254597306251526, 
527, 436659743, -151.35745239257812, -78.84239196777344, -156.8968963623047, 9.9818696975708, -0.6948288679122925, -1.4636973142623901, 1.7946105003356934, -15.815986633300781, 0.2917974293231964, 
528, 436668076, -151.73223876953125, -78.74681091308594, -156.54925537109375, 9.726336479187012, -0.7120235562324524, -1.4875006675720215, 1.8257060050964355, -15.511049270629883, 0.273150235414505, 
529, 436676409, -152.0159912109375, -78.64595031738281, -156.26077270507812, 9.973737716674805, -0.6923522353172302, -1.4520469903945923, 1.886642336845398, -15.35285472869873, 0.45478084683418274, 
530, 436684742, -152.35057067871094, -78.5538330078125, -155.95242309570312, 9.87804126739502, -0.7082096338272095, -1.48806631565094, 2.003084897994995, -14.766008377075195, 0.5956335663795471, 
531, 436693075, -152.60208129882812, -78.45882415771484, -155.6960906982422, 9.852167129516602, -0.6827612519264221, -1.4355355501174927, 1.960078239440918, -14.424260139465332, 0.567867636680603, 
532, 436701408, -152.9127655029297, -78.37265014648438, -155.4136505126953, 9.903365135192871, -0.6969813704490662, -1.4174588918685913, 2.0580785274505615, -13.949503898620605, 0.520609438419342, 
533, 436709741, -153.1324005126953, -78.28550720214844, -155.188232421875, 9.837081909179688, -0.7071829438209534, -1.4586786031723022, 2.148573160171509, -13.277128219604492, 0.601294219493866, 
534, 436718074, -153.40171813964844, -78.2059097290039, -154.94691467285156, 10.01813793182373, -0.7227310538291931, -1.4034112691879272, 2.1960110664367676, -12.8565673828125, 0.8354596495628357, 
535, 436726407, -153.5823516845703, -78.12499237060547, -154.7610321044922, 9.82823371887207, -0.6858898997306824, -1.41800856590271, 2.188941717147827, -12.200178146362305, 0.9714712500572205, 
536, 436734740, -153.8225555419922, -78.05219268798828, -154.55026245117188, 9.901779174804688, -0.6978961825370789, -1.4037426710128784, 2.2180135250091553, -11.871519088745117, 0.9508516788482666, 
537, 436743073, -153.98269653320312, -77.97952270507812, -154.38539123535156, 9.95644474029541, -0.7186664342880249, -1.3987832069396973, 2.1772871017456055, -11.113160133361816, 0.8833839297294617, 
538, 436751406, -154.1900177001953, -77.91728973388672, -154.2010498046875, 9.833024024963379, -0.7314969301223755, -1.396087646484375, 2.347135066986084, -10.432563781738281, 0.9837148189544678, 
539, 436759739, -154.31610107421875, -77.85293579101562, -154.0693359375, 9.940776824951172, -0.7037346959114075, -1.3548835515975952, 2.3651418685913086, -9.875555992126465, 1.1090196371078491, 
540, 436768072, -154.48934936523438, -77.7994613647461, -153.9249267578125, 9.861942291259766, -0.6769468784332275, -1.3537192344665527, 2.4742069244384766, -9.171984672546387, 1.1844792366027832, 
541, 436776405, -154.58932495117188, -77.7454605102539, -153.81922912597656, 9.943717002868652, -0.6966342329978943, -1.355944037437439, 2.4587619304656982, -8.479093551635742, 1.1004899740219116, 
542, 436784738, -154.7345428466797, -77.70299530029297, -153.70301818847656, 9.908103942871094, -0.714270293712616, -1.3004502058029175, 2.4903695583343506, -7.723345756530762, 1.1972606182098389, 
543, 436793071, -154.79942321777344, -77.6591796875, -153.63192749023438, 9.882241249084473, -0.7065695524215698, -1.3296470642089844, 2.615213632583618, -7.01045036315918, 1.339240312576294, 
544, 436801404, -154.90187072753906, -77.62828063964844, -153.555419921875, 9.935979843139648, -0.6775150895118713, -1.3275741338729858, 2.6904938220977783, -6.062569618225098, 1.5300920009613037, 
545, 436809737, -154.93446350097656, -77.59769439697266, -153.51629638671875, 9.857386589050293, -0.6708852648735046, -1.3240079879760742, 2.7450263500213623, -5.232616901397705, 1.3916983604431152, 
546, 436818070, -155.0142364501953, -77.58001708984375, -153.4633026123047, 9.908926010131836, -0.6975878477096558, -1.3245155811309814, 2.850147008895874, -4.435783386230469, 1.3389328718185425, 
547, 436826403, -155.01853942871094, -77.56095886230469, -153.4523162841797, 9.922765731811523, -0.6944304704666138, -1.3112117052078247, 2.855769395828247, -3.671006917953491, 1.455797791481018, 
548, 436834736, -155.0613555908203, -77.55441284179688, -153.4365692138672, 9.880687713623047, -0.6809335350990295, -1.3276842832565308, 2.987337112426758, -2.87605619430542, 1.6161558628082275, 
549, 436843069, -155.03076171875, -77.5470199584961, -153.4601593017578, 9.905671119689941, -0.6781377196311951, -1.2794232368469238, 2.998274087905884, -2.031528949737549, 1.679499626159668, 
550, 436851402, -155.04368591308594, -77.553955078125, -153.472900390625, 9.865472793579102, -0.6706201434135437, -1.303069829940796, 3.0744762420654297, -1.1336731910705566, 1.6278101205825806, 
551, 436859735, -154.99058532714844, -77.55966186523438, -153.5181427001953, 9.941529273986816, -0.6874051094055176, -1.2956138849258423, 3.1709401607513428, -0.36903712153434753, 1.5239702463150024, 
552, 436868068, -154.9727325439453, -77.58047485351562, -153.5601806640625, 9.87971305847168, -0.6881296038627625, -1.309134840965271, 3.1440958976745605, 0.6653810143470764, 1.6350079774856567, 
553, 436876401, -154.88037109375, -77.59854125976562, -153.6457061767578, 9.900093078613281, -0.6690913438796997, -1.3105660676956177, 3.1682119369506836, 1.4149174690246582, 1.834043264389038, 
554, 436884734, -154.82730102539062, -77.63048553466797, -153.72520446777344, 9.886569023132324, -0.6884568333625793, -1.3014791011810303, 3.2973074913024902, 2.204296827316284, 1.863243579864502, 
555, 436893067, -154.70632934570312, -77.66084289550781, -153.83827209472656, 9.849077224731445, -0.6900200843811035, -1.3367031812667847, 3.386765241622925, 3.0518081188201904, 1.825526475906372, 
556, 436901400, -154.62515258789062, -77.70612335205078, -153.94473266601562, 9.920221328735352, -0.7061208486557007, -1.3125724792480469, 3.3556952476501465, 3.906759738922119, 1.8086466789245605, 
557, 436909733, -154.4739532470703, -77.74742126464844, -154.08856201171875, 9.910623550415039, -0.7005963325500488, -1.3409122228622437, 3.404054880142212, 4.559487342834473, 1.9422504901885986, 
558, 436918066, -154.35838317871094, -77.80314636230469, -154.23085021972656, 9.89741325378418, -0.6720112562179565, -1.3365379571914673, 3.5259532928466797, 5.367361068725586, 1.9858461618423462, 
559, 436926399, -154.17709350585938, -77.85557556152344, -154.4031219482422, 9.9169282913208, -0.6941950917243958, -1.3515088558197021, 3.6838135719299316, 6.068319320678711, 1.9548014402389526, 
560, 436934732, -154.0337677001953, -77.92266845703125, -154.5697021484375, 9.874195098876953, -0.6812804937362671, -1.3707486391067505, 3.6829946041107178, 6.831984043121338, 1.9359242916107178, 
561, 436943065, -153.82301330566406, -77.98517608642578, -154.7714385986328, 9.929152488708496, -0.7155349850654602, -1.377500057220459, 3.762218952178955, 7.463707447052002, 2.004441976547241, 
562, 436951398, -153.64523315429688, -78.06151580810547, -154.97154235839844, 9.890271186828613, -0.6922076344490051, -1.4035353660583496, 3.8345797061920166, 8.15198802947998, 2.0996246337890625, 
563, 436959731, -153.39950561523438, -78.13316345214844, -155.2082977294922, 9.879253387451172, -0.68975430727005, -1.4285496473312378, 3.8415207862854004, 8.812579154968262, 2.1770308017730713, 
564, 436968064, -153.19264221191406, -78.21765899658203, -155.4394073486328, 9.888998031616211, -0.664347767829895, -1.4312610626220703, 3.7684433460235596, 9.309289932250977, 2.189863681793213, 
565, 436976397, -152.9203643798828, -78.29759979248047, -155.7025909423828, 9.892561912536621, -0.6958226561546326, -1.4355573654174805, 3.908860921859741, 9.960070610046387, 2.154567241668701, 
566, 436984730, -152.6779327392578, -78.38992309570312, -155.9707794189453, 9.931960105895996, -0.6963041424751282, -1.433640956878662, 4.005503177642822, 10.467667579650879, 2.3279755115509033, 
567, 436993063, -152.36709594726562, -78.47564697265625, -156.27279663085938, 9.848494529724121, -0.7026290893554688, -1.4407597780227661, 3.9721152782440186, 10.984704971313477, 2.4657163619995117, 
568, 437001396, -152.09544372558594, -78.57534790039062, -156.56829833984375, 9.868511199951172, -0.697441577911377, -1.4487807750701904, 4.039031982421875, 11.502202033996582, 2.336735486984253, 
569, 437009729, -151.76400756835938, -78.66839599609375, -156.8906707763672, 9.886730194091797, -0.6823568940162659, -1.4771838188171387, 4.0363945960998535, 11.946379661560059, 2.2471120357513428, 
570, 437018062, -151.46519470214844, -78.77408599853516, -157.20904541015625, 9.885114669799805, -0.6911106109619141, -1.4708764553070068, 4.124122619628906, 12.380743026733398, 2.297673463821411, 
571, 437026395, -151.09658813476562, -78.87136840820312, -157.56849670410156, 9.909390449523926, -0.7206785082817078, -1.4630323648452759, 4.10596227645874, 12.753559112548828, 2.4950315952301025, 
572, 437034728, -150.76268005371094, -78.9812240600586, -157.92764282226562, 9.867155075073242, -0.6832883954048157, -1.4775876998901367, 4.158420085906982, 13.129833221435547, 2.4809696674346924, 
573, 437043061, -150.37310791015625, -79.0829086303711, -158.3075408935547, 9.877694129943848, -0.6805444955825806, -1.5013625621795654, 4.193819522857666, 13.386820793151855, 2.3304858207702637, 
574, 437051394, -150.01608276367188, -79.19647979736328, -158.68936157226562, 9.877991676330566, -0.6900961399078369, -1.4952226877212524, 4.205575942993164, 13.703386306762695, 2.3816375732421875, 
575, 437059727, -149.59869384765625, -79.30126953125, -159.09793090820312, 9.880123138427734, -0.714022159576416, -1.5059705972671509, 4.12628698348999, 13.958209991455078, 2.3575215339660645, 
576, 437068060, -149.20809936523438, -79.41725158691406, -159.51187133789062, 9.895960807800293, -0.7051506638526917, -1.5252066850662231, 4.2768354415893555, 14.244693756103516, 2.510246753692627, 
577, 437076393, -148.75738525390625, -79.52375793457031, -159.95297241210938, 9.844873428344727, -0.6913315653800964, -1.565330982208252, 4.260621070861816, 14.431191444396973, 2.480252504348755, 
578, 437084726, -148.34690856933594, -79.64037322998047, -160.38746643066406, 9.851358413696289, -0.6900523900985718, -1.521408200263977, 4.253116130828857, 14.452527046203613, 2.4456732273101807, 
579, 437093059, -147.87522888183594, -79.74761962890625, -160.8500213623047, 9.861315727233887, -0.6917787194252014, -1.5667483806610107, 4.219792366027832, 14.66256332397461, 2.4120161533355713, 
580, 437101392, -147.44337463378906, -79.86407470703125, -161.3033447265625, 9.857522010803223, -0.6866848468780518, -1.6115506887435913, 4.221380233764648, 14.59350872039795, 2.426539421081543, 
581, 437109725, -146.95431518554688, -79.96768188476562, -161.7835235595703, 9.841703414916992, -0.6783152222633362, -1.6691042184829712, 4.189464569091797, 14.404218673706055, 2.524974822998047, 
582, 437118058, -146.50531005859375, -80.08192443847656, -162.25315856933594, 9.806855201721191, -0.6553735733032227, -1.6992300748825073, 4.220996379852295, 14.47668170928955, 2.4381940364837646, 
583, 437126391, -146.0078887939453, -80.18366241455078, -162.74151611328125, 9.842859268188477, -0.6607058644294739, -1.6998438835144043, 4.194896221160889, 14.212369918823242, 2.353513479232788, 
584, 437134724, -145.55686950683594, -80.2938232421875, -163.2151641845703, 9.822840690612793, -0.6745198369026184, -1.72887122631073, 4.225556373596191, 14.012758255004883, 2.3034632205963135, 
585, 437143057, -145.0534210205078, -80.3910903930664, -163.7096405029297, 9.80711555480957, -0.6508480310440063, -1.7588598728179932, 4.161135196685791, 13.742883682250977, 2.328052282333374, 
586, 437151390, -144.60546875, -80.49591827392578, -164.17947387695312, 9.798457145690918, -0.6587661504745483, -1.7423266172409058, 4.159163475036621, 13.384183883666992, 2.201108455657959, 
587, 437159723, -144.10910034179688, -80.58863067626953, -164.6668701171875, 9.814257621765137, -0.6575984954833984, -1.7491633892059326, 4.1279401779174805, 13.126402854919434, 2.1126883029937744, 
588, 437168056, -143.66558837890625, -80.68778228759766, -165.13148498535156, 9.808935165405273, -0.6674920916557312, -1.7334381341934204, 4.056091785430908, 12.69861888885498, 2.1547722816467285, 
589, 437176389, -143.17706298828125, -80.77359008789062, -165.61180114746094, 9.780264854431152, -0.6538777351379395, -1.7728577852249146, 3.9992282390594482, 12.283334732055664, 2.1065151691436768, 
590, 437184722, -142.74136352539062, -80.86670684814453, -166.06895446777344, 9.789925575256348, -0.6606583595275879, -1.8334481716156006, 4.033987045288086, 11.969304084777832, 2.094578742980957, 
591, 437193055, -142.26260375976562, -80.94648742675781, -166.53892517089844, 9.7675142288208, -0.6717853546142578, -1.8017648458480835, 4.039620876312256, 11.50396728515625, 2.0294415950775146, 
592, 437201388, -141.85536193847656, -81.03327941894531, -166.96694946289062, 9.776434898376465, -0.6560661196708679, -1.802558422088623, 3.9015860557556152, 10.988431930541992, 1.8147943019866943, 
593, 437209721, -141.406494140625, -81.10658264160156, -167.40814208984375, 9.774761199951172, -0.6700937747955322, -1.8198398351669312, 3.847693681716919, 10.477810859680176, 1.7722491025924683, 
594, 437218054, -141.0225372314453, -81.185791015625, -167.81434631347656, 9.774807929992676, -0.6691192388534546, -1.8172736167907715, 3.833375930786133, 9.970189094543457, 1.7554208040237427, 
595, 437226387, -140.60763549804688, -81.2498550415039, -168.22195434570312, 9.744491577148438, -0.6687788367271423, -1.8213281631469727, 3.744032621383667, 9.159239768981934, 1.7210716009140015, 
596, 437234720, -140.263916015625, -81.32095336914062, -168.58905029296875, 9.732734680175781, -0.6550548672676086, -1.8207566738128662, 3.622851848602295, 8.743419647216797, 1.57691490650177, 
597, 437243053, -139.8866424560547, -81.37848663330078, -168.95956420898438, 9.726703643798828, -0.6396560072898865, -1.8409879207611084, 3.6134514808654785, 8.06113338470459, 1.4934380054473877, 
598, 437251386, -139.5831756591797, -81.44076538085938, -169.2863006591797, 9.731821060180664, -0.6359013915061951, -1.8239257335662842, 3.568011522293091, 7.444546699523926, 1.516029715538025, 
599, 437259719, -139.2431182861328, -81.48936462402344, -169.61972045898438, 9.73486042022705, -0.6293211579322815, -1.8544721603393555, 3.54923677444458, 6.769535541534424, 1.5086016654968262, 
600, 437268052, -138.98924255371094, -81.54325103759766, -169.8968048095703, 9.733076095581055, -0.6383633017539978, -1.8545721769332886, 3.4023385047912598, 6.113195896148682, 1.3775334358215332, 
601, 437276385, -138.7071075439453, -81.58338928222656, -170.17320251464844, 9.713571548461914, -0.6480494141578674, -1.8649483919143677, 3.3638916015625, 5.307474136352539, 1.2891387939453125, 
602, 437284718, -138.5141143798828, -81.62797546386719, -170.3883819580078, 9.695338249206543, -0.6462687849998474, -1.875503420829773, 3.37943959236145, 4.586767196655273, 1.2001550197601318, 
603, 437293051, -138.29168701171875, -81.6596908569336, -170.60525512695312, 9.712698936462402, -0.6413102746009827, -1.8843671083450317, 3.256568193435669, 3.830634355545044, 1.1012840270996094, 
604, 437301384, -138.16314697265625, -81.69376373291016, -170.7589111328125, 9.723991394042969, -0.6492088437080383, -1.9018425941467285, 3.193301200866699, 2.945996046066284, 1.144392967224121, 
605, 437309717, -138.0074462890625, -81.71551513671875, -170.90933227539062, 9.703298568725586, -0.6297876834869385, -1.8957213163375854, 3.138845205307007, 2.149034261703491, 1.0031046867370605, 
606, 437318050, -137.9486083984375, -81.74112701416016, -170.99273681640625, 9.69173812866211, -0.6429136991500854, -1.909801959991455, 3.0606961250305176, 1.4274559020996094, 0.9076660871505737, 
