sep=,
PacketCounter,SampleTimeFine,Euler_X,Euler_Y,Euler_Z,Acc_X,Acc_Y,Acc_Z,Gyr_X,Gyr_Y,Gyr_Z,
0, 2272079591, -94.34529113769531, -66.1591796875, -162.9514617919922, 0, 0, 0, 0, 0, 0, 
1, 2272087924, -94.42249298095703, -66.14811706542969, -162.85289001464844, 9.082889556884766, -3.979875087738037, -0.3182298541069031, 1.5527732372283936, -4.870674133300781, 0.9604440331459045, 
2, 2272096257, -94.52753448486328, -66.15839385986328, -162.722900390625, 9.080395698547363, -4.004971504211426, -0.3048163652420044, 1.7334562540054321, -4.506799221038818, 1.0220719575881958, 
3, 2272104590, -94.58745574951172, -66.14691162109375, -162.63980102539062, 9.077718734741211, -3.9753620624542236, -0.31523582339286804, 1.9272023439407349, -4.1298604011535645, 1.055626630783081, 
4, 2272112923, -94.6419906616211, -66.15093231201172, -162.55514526367188, 9.0549898147583, -3.9879302978515625, -0.30464428663253784, 2.103121042251587, -3.7889091968536377, 1.1465829610824585, 
5, 2272121256, -94.68641662597656, -66.1396713256836, -162.48666381835938, 9.068845748901367, -3.982064723968506, -0.31528496742248535, 2.1883652210235596, -3.4218316078186035, 1.0770658254623413, 
6, 2272129589, -94.70555114746094, -66.14048767089844, -162.41653442382812, 9.064376831054688, -4.012932777404785, -0.31277668476104736, 2.3886938095092773, -3.0908186435699463, 1.0923573970794678, 
7, 2272137922, -94.73560333251953, -66.1294174194336, -162.3612823486328, 9.056507110595703, -4.0126519203186035, -0.28415533900260925, 2.4529597759246826, -2.7826788425445557, 1.1080844402313232, 
8, 2272146255, -94.717529296875, -66.11894226074219, -162.35089111328125, 9.061575889587402, -4.039488792419434, -0.25826627016067505, 2.6825404167175293, -2.3944954872131348, 1.0425889492034912, 
9, 2272154588, -94.72920989990234, -66.1080093383789, -162.31251525878906, 9.060586929321289, -4.021034240722656, -0.2908155620098114, 2.80643630027771, -1.9681721925735474, 1.156059980392456, 
10, 2272162921, -94.67283630371094, -66.0905990600586, -162.3148651123047, 9.083740234375, -4.022664546966553, -0.282620370388031, 3.0031795501708984, -1.6620054244995117, 1.0873627662658691, 
11, 2272171254, -94.66757202148438, -66.08001708984375, -162.2919464111328, 9.044679641723633, -4.0387678146362305, -0.2658537030220032, 3.145108222961426, -1.2144222259521484, 1.1759369373321533, 
12, 2272179587, -94.59408569335938, -66.06096649169922, -162.3243865966797, 9.082254409790039, -4.029653072357178, -0.28418728709220886, 3.2603721618652344, -1.0128381252288818, 1.2224522829055786, 
13, 2272187920, -94.57527160644531, -66.05120086669922, -162.31373596191406, 9.061325073242188, -4.044124603271484, -0.2867555618286133, 3.424379825592041, -0.6100541949272156, 1.127192735671997, 
14, 2272196253, -94.495361328125, -66.03351593017578, -162.33880615234375, 9.05496883392334, -4.0442328453063965, -0.2904973328113556, 3.5954573154449463, -0.311853289604187, 1.1599278450012207, 
15, 2272204586, -94.46116638183594, -66.02265167236328, -162.3427734375, 9.050785064697266, -4.034879207611084, -0.2720804810523987, 3.6640777587890625, 0.09181422740221024, 1.3173528909683228, 
16, 2272212919, -94.3746566772461, -66.00382232666016, -162.38287353515625, 9.06287956237793, -4.025775909423828, -0.27168259024620056, 3.7613089084625244, 0.3867620825767517, 1.3273935317993164, 
17, 2272221252, -94.327880859375, -65.99335479736328, -162.39871215820312, 9.054803848266602, -3.998368978500366, -0.28181615471839905, 3.879775047302246, 0.6749991178512573, 1.3077476024627686, 
18, 2272229585, -94.23221588134766, -65.97958374023438, -162.43643188476562, 9.051825523376465, -4.029703617095947, -0.3167128264904022, 4.058921813964844, 1.1628735065460205, 1.2230156660079956, 
19, 2272237918, -94.16815948486328, -65.96998596191406, -162.4682159423828, 9.064093589782715, -4.015141487121582, -0.2996434271335602, 4.2055888175964355, 1.4627394676208496, 1.2620518207550049, 
20, 2272246251, -94.07035827636719, -65.9570541381836, -162.50588989257812, 9.054519653320312, -4.020323753356934, -0.2713299095630646, 4.375743865966797, 1.8857585191726685, 1.352803111076355, 
21, 2272254584, -93.98979949951172, -65.9466552734375, -162.55258178710938, 9.075725555419922, -4.000643730163574, -0.2753387689590454, 4.547102928161621, 2.1921815872192383, 1.4046462774276733, 
22, 2272262917, -93.88203430175781, -65.93670654296875, -162.60928344726562, 9.07656192779541, -4.015665531158447, -0.3008258044719696, 4.729450702667236, 2.532287359237671, 1.313562035560608, 
23, 2272271250, -93.78573608398438, -65.92655944824219, -162.67007446289062, 9.086780548095703, -4.005161762237549, -0.3109632432460785, 4.888105392456055, 2.8865838050842285, 1.4175301790237427, 
24, 2272279583, -93.6722183227539, -65.91822052001953, -162.7256317138672, 9.088212013244629, -3.9886741638183594, -0.2765673100948334, 5.015127182006836, 3.25010085105896, 1.3936322927474976, 
25, 2272287916, -93.56010437011719, -65.9093017578125, -162.80101013183594, 9.09298038482666, -3.9907608032226562, -0.2841551601886749, 5.197653770446777, 3.6178700923919678, 1.297220230102539, 
26, 2272296249, -93.43657684326172, -65.90371704101562, -162.84506225585938, 9.106825828552246, -4.000446319580078, -0.29429107904434204, 5.3693718910217285, 3.919733762741089, 1.4011884927749634, 
27, 2272304582, -93.30802154541016, -65.89444732666016, -162.93450927734375, 9.106204986572266, -4.002483367919922, -0.2838384211063385, 5.627717018127441, 4.310606956481934, 1.3697854280471802, 
28, 2272312915, -93.17333221435547, -65.89103698730469, -163.00921630859375, 9.096365928649902, -3.997445821762085, -0.29472464323043823, 5.810627460479736, 4.670538425445557, 1.3420195579528809, 
29, 2272321248, -93.03248596191406, -65.88187408447266, -163.11083984375, 9.115796089172363, -4.005420207977295, -0.3011898696422577, 5.772156238555908, 4.916742324829102, 1.3680691719055176, 
30, 2272329581, -92.89089965820312, -65.87950897216797, -163.1715087890625, 9.126269340515137, -4.005533218383789, -0.28200435638427734, 6.015952110290527, 5.317426681518555, 1.3413280248641968, 
31, 2272337914, -92.73531341552734, -65.86959075927734, -163.28651428222656, 9.101825714111328, -3.9971201419830322, -0.3101154565811157, 6.074402809143066, 5.575693607330322, 1.4668887853622437, 
32, 2272346247, -92.58805084228516, -65.86772155761719, -163.35646057128906, 9.088349342346191, -4.010219097137451, -0.30055904388427734, 6.325883865356445, 5.801996231079102, 1.3841805458068848, 
33, 2272354580, -92.41754150390625, -65.8583984375, -163.48512268066406, 9.071309089660645, -4.014044761657715, -0.28885510563850403, 6.3668413162231445, 6.259313106536865, 1.3945543766021729, 
34, 2272362913, -92.26202392578125, -65.85615539550781, -163.578857421875, 9.078045845031738, -4.01846170425415, -0.29672548174858093, 6.526636600494385, 6.455582618713379, 1.4007147550582886, 
35, 2272371246, -92.07981872558594, -65.84611511230469, -163.71694946289062, 9.07750415802002, -4.018555641174316, -0.27327215671539307, 6.742396831512451, 6.729231357574463, 1.4617661237716675, 
36, 2272379579, -91.91864776611328, -65.8437728881836, -163.83334350585938, 9.075178146362305, -4.015941143035889, -0.2931872010231018, 6.795546054840088, 6.886962890625, 1.361742377281189, 
37, 2272387912, -91.72637176513672, -65.83368682861328, -163.9808807373047, 9.05633544921875, -4.017853736877441, -0.27631184458732605, 6.914832592010498, 7.205502033233643, 1.4434775114059448, 
38, 2272396245, -91.55748748779297, -65.82975769042969, -164.1090087890625, 9.066569328308105, -4.034295558929443, -0.24205711483955383, 7.08126163482666, 7.416960716247559, 1.492055058479309, 
39, 2272404578, -91.35653686523438, -65.81846618652344, -164.26483154296875, 9.05882453918457, -4.024352073669434, -0.25380149483680725, 7.05746603012085, 7.621056079864502, 1.5485087633132935, 
40, 2272412911, -91.18053436279297, -65.8140640258789, -164.3687286376953, 9.051218032836914, -4.014728546142578, -0.2782304584980011, 7.158987522125244, 7.909715175628662, 1.4614588022232056, 
41, 2272421244, -90.96890258789062, -65.80331420898438, -164.53369140625, 9.050607681274414, -4.0242109298706055, -0.26142045855522156, 7.3369550704956055, 8.08742618560791, 1.4432213306427002, 
42, 2272429577, -90.78999328613281, -65.79801940917969, -164.61270141601562, 9.073647499084473, -4.0353217124938965, -0.2314482033252716, 7.332472801208496, 8.202947616577148, 1.4940913915634155, 
43, 2272437910, -90.57256317138672, -65.7867431640625, -164.78399658203125, 9.080575942993164, -4.047667503356934, -0.2468123733997345, 7.343564033508301, 8.415545463562012, 1.4550039768218994, 
44, 2272446243, -90.39154052734375, -65.78043365478516, -164.83583068847656, 9.058341979980469, -4.041207313537598, -0.2539132535457611, 7.409059047698975, 8.435933113098145, 1.5206787586212158, 
45, 2272454576, -90.17064666748047, -65.76878356933594, -165.0097198486328, 9.081674575805664, -4.047626972198486, -0.2490946650505066, 7.475769996643066, 8.559074401855469, 1.442107081413269, 
46, 2272462909, -89.98759460449219, -65.76134490966797, -165.0778045654297, 9.077823638916016, -4.049057483673096, -0.264347106218338, 7.4644246101379395, 8.712041854858398, 1.5675143003463745, 
47, 2272471242, -89.75985717773438, -65.74800109863281, -165.25828552246094, 9.090557098388672, -4.024656772613525, -0.26547732949256897, 7.573668956756592, 8.902023315429688, 1.583139181137085, 
48, 2272479575, -89.5738525390625, -65.74040985107422, -165.35934448242188, 9.099322319030762, -4.0124897956848145, -0.2515631318092346, 7.684629917144775, 8.995617866516113, 1.523355484008789, 
49, 2272487908, -89.34034729003906, -65.72663116455078, -165.54615783691406, 9.078932762145996, -4.015358924865723, -0.2553471326828003, 7.582326412200928, 9.233112335205078, 1.5692049264907837, 
50, 2272496241, -89.15543365478516, -65.71790313720703, -165.7568817138672, 9.096529960632324, -4.008380889892578, -0.22779051959514618, 7.679764270782471, 9.13572883605957, 1.644049882888794, 
51, 2272504574, -88.9190673828125, -65.70309448242188, -165.9460906982422, 9.109504699707031, -4.006877899169922, -0.24968048930168152, 7.668389320373535, 9.374810218811035, 1.6197929382324219, 
52, 2272512907, -88.73177337646484, -65.69459533691406, -166.0397491455078, 9.093100547790527, -3.9992494583129883, -0.260733425617218, 7.7066826820373535, 9.423707008361816, 1.6094704866409302, 
53, 2272521240, -88.49281311035156, -65.67972564697266, -166.2302703857422, 9.090142250061035, -3.9983179569244385, -0.29904821515083313, 7.833909511566162, 9.4630765914917, 1.559266448020935, 
54, 2272529573, -88.3070068359375, -65.6711196899414, -166.34764099121094, 9.080451011657715, -3.9987149238586426, -0.28047531843185425, 7.853671550750732, 9.518033027648926, 1.5993913412094116, 
55, 2272537906, -88.06549072265625, -65.65544128417969, -166.5411376953125, 9.098061561584473, -4.0123395919799805, -0.2621287703514099, 7.821999549865723, 9.632848739624023, 1.5835745334625244, 
56, 2272546239, -87.88115692138672, -65.6474838256836, -166.6691436767578, 9.096858024597168, -4.0035295486450195, -0.283848375082016, 7.856181621551514, 9.648999214172363, 1.5001106262207031, 
57, 2272554572, -87.63838958740234, -65.63090515136719, -166.8628387451172, 9.090672492980957, -3.996187448501587, -0.25617051124572754, 7.950096130371094, 9.665943145751953, 1.6175135374069214, 
58, 2272562905, -87.45540618896484, -65.62242889404297, -167.01368713378906, 9.096510887145996, -4.018784046173096, -0.2779955267906189, 7.922408103942871, 9.74824047088623, 1.544769287109375, 
59, 2272571238, -87.2125244140625, -65.60591888427734, -167.20681762695312, 9.083951950073242, -4.001643180847168, -0.27830055356025696, 8.033674240112305, 9.662304878234863, 1.5403378009796143, 
60, 2272579571, -87.03364562988281, -65.59688568115234, -167.29225158691406, 9.093841552734375, -4.02757453918457, -0.2520439028739929, 8.000786781311035, 9.698139190673828, 1.5800399780273438, 
61, 2272587904, -86.79168701171875, -65.58013153076172, -167.48477172851562, 9.089011192321777, -4.022345066070557, -0.2680320739746094, 7.99558687210083, 9.655313491821289, 1.497408390045166, 
62, 2272596237, -86.6166763305664, -65.57013702392578, -167.5810089111328, 9.09618091583252, -4.023538589477539, -0.26139792799949646, 7.9377760887146, 9.697474479675293, 1.649633765220642, 
63, 2272604570, -86.37496185302734, -65.55254364013672, -167.77357482910156, 9.084680557250977, -4.022133827209473, -0.24450291693210602, 7.968077659606934, 9.68446159362793, 1.527581810951233, 
64, 2272612903, -86.20551300048828, -65.5434341430664, -167.8773651123047, 9.08240795135498, -4.02085542678833, -0.22903820872306824, 7.866337299346924, 9.583183288574219, 1.5071163177490234, 
65, 2272621236, -85.96835327148438, -65.52537536621094, -168.06564331054688, 9.072510719299316, -4.032756328582764, -0.25778961181640625, 7.890158653259277, 9.500244140625, 1.5328583717346191, 
66, 2272629569, -85.80612182617188, -65.51542663574219, -168.1590576171875, 9.064366340637207, -4.027191162109375, -0.23211237788200378, 7.834319114685059, 9.357878684997559, 1.583267092704773, 
67, 2272637902, -85.57565307617188, -65.4966812133789, -168.34103393554688, 9.058884620666504, -4.00974178314209, -0.22408753633499146, 7.7846527099609375, 9.215361595153809, 1.5682826042175293, 
68, 2272646235, -85.34760284423828, -65.47798156738281, -168.5208282470703, 9.038713455200195, -4.025639533996582, -0.2257414013147354, 7.732426643371582, 9.115006446838379, 1.5356760025024414, 
69, 2272654568, -85.19764709472656, -65.46842956542969, -168.6080322265625, 9.043915748596191, -4.033970832824707, -0.21797356009483337, 7.638396263122559, 8.918161392211914, 1.5033763647079468, 
70, 2272662901, -85.05315399169922, -65.45817565917969, -168.69447326660156, 9.043817520141602, -4.011301517486572, -0.2457297146320343, 7.56716251373291, 8.76508903503418, 1.5703575611114502, 
71, 2272671234, -84.83692169189453, -65.4384994506836, -168.8630828857422, 9.030532836914062, -4.024912357330322, -0.2369670271873474, 7.5503082275390625, 8.60607624053955, 1.6175134181976318, 
72, 2272679567, -84.70193481445312, -65.42851257324219, -168.9406280517578, 9.038561820983887, -4.028626918792725, -0.211741641163826, 7.432867050170898, 8.434383392333984, 1.5446152687072754, 
73, 2272687900, -84.49600982666016, -65.40974426269531, -169.09902954101562, 9.047430992126465, -4.000166416168213, -0.23108124732971191, 7.424901485443115, 8.110261917114258, 1.5070905685424805, 
74, 2272696233, -84.37178039550781, -65.39946746826172, -169.16175842285156, 9.039538383483887, -4.024831295013428, -0.22440773248672485, 7.243885040283203, 8.048864364624023, 1.585008978843689, 
75, 2272704566, -84.1739273071289, -65.38031768798828, -169.3140411376953, 9.046821594238281, -4.029873847961426, -0.22205568850040436, 7.125393867492676, 7.831963062286377, 1.5398255586624146, 
76, 2272712899, -84.05944061279297, -65.36991882324219, -169.36920166015625, 9.053065299987793, -4.000039100646973, -0.1909126192331314, 7.040815830230713, 7.715417861938477, 1.608830213546753, 
77, 2272721232, -83.8716049194336, -65.3514175415039, -169.51194763183594, 9.043222427368164, -4.006265640258789, -0.2119850069284439, 6.9745774269104, 7.370214939117432, 1.4693350791931152, 
78, 2272729565, -83.77190399169922, -65.3421401977539, -169.55921936035156, 9.050385475158691, -3.9984030723571777, -0.23726922273635864, 6.790231704711914, 7.095219612121582, 1.5327558517456055, 
79, 2272737898, -83.59355163574219, -65.32354736328125, -169.69390869140625, 9.037331581115723, -4.000448226928711, -0.19925229251384735, 6.720227241516113, 6.986154079437256, 1.4870855808258057, 
80, 2272746231, -83.5045166015625, -65.314453125, -169.72811889648438, 9.051103591918945, -3.9865987300872803, -0.24185068905353546, 6.563597679138184, 6.709316730499268, 1.5497894287109375, 
81, 2272754564, -83.33956146240234, -65.29618072509766, -169.84950256347656, 9.063460350036621, -3.9833083152770996, -0.19973105192184448, 6.560446262359619, 6.3366546630859375, 1.4940017461776733, 
82, 2272762897, -83.26544189453125, -65.2885513305664, -169.87210083007812, 9.074036598205566, -3.976627826690674, -0.1895643174648285, 6.281942367553711, 6.087120532989502, 1.462060570716858, 
83, 2272771230, -83.1097640991211, -65.27033996582031, -169.98580932617188, 9.059727668762207, -3.9857945442199707, -0.22783945500850677, 6.296183109283447, 5.968986988067627, 1.5062193870544434, 
84, 2272779563, -83.04350280761719, -65.26268005371094, -170.00254821777344, 9.053196907043457, -3.994893789291382, -0.21280568838119507, 6.208531856536865, 5.765507698059082, 1.5258655548095703, 
85, 2272787896, -82.8976058959961, -65.24546813964844, -170.1083221435547, 9.057827949523926, -3.9991366863250732, -0.22894629836082458, 5.990426540374756, 5.57481050491333, 1.4131115674972534, 
86, 2272796229, -82.84722137451172, -65.23988342285156, -170.1080780029297, 9.050873756408691, -3.98728084564209, -0.23091566562652588, 5.949368000030518, 5.058248519897461, 1.3673648834228516, 
87, 2272804562, -82.71524810791016, -65.22288513183594, -170.20028686523438, 9.0454683303833, -3.974844455718994, -0.20004789531230927, 5.797525882720947, 4.909045696258545, 1.4586026668548584, 
88, 2272812895, -82.67626953125, -65.21778106689453, -170.2079315185547, 9.046869277954102, -3.9865882396698, -0.1970386803150177, 5.678906440734863, 4.615352630615234, 1.3857814073562622, 
89, 2272821228, -82.55685424804688, -65.20167541503906, -170.28842163085938, 9.030529975891113, -3.9783437252044678, -0.22667671740055084, 5.578550338745117, 4.321967124938965, 1.4104735851287842, 
90, 2272829561, -82.53260040283203, -65.19757080078125, -170.28219604492188, 9.035361289978027, -3.974797010421753, -0.21639147400856018, 5.4466872215271, 3.9540178775787354, 1.3681843280792236, 
91, 2272837894, -82.4281005859375, -65.18289184570312, -170.3485870361328, 9.031590461730957, -3.994351863861084, -0.2214570939540863, 5.326633453369141, 3.6071245670318604, 1.3222835063934326, 
92, 2272846227, -82.41922760009766, -65.1795883178711, -170.32826232910156, 9.05695915222168, -4.002930164337158, -0.22100712358951569, 5.160859107971191, 3.2843854427337646, 1.3757662773132324, 
93, 2272854560, -82.32901000976562, -65.16615295410156, -170.38104248046875, 9.031806945800781, -3.9996373653411865, -0.20331166684627533, 5.098590850830078, 2.9143877029418945, 1.260681390762329, 
94, 2272862893, -82.33374786376953, -65.16341400146484, -170.34832763671875, 9.02295207977295, -4.000414848327637, -0.18420331180095673, 4.90172004699707, 2.695206880569458, 1.3895212411880493, 
95, 2272871226, -82.25556945800781, -65.15105438232422, -170.39137268066406, 9.00605583190918, -3.9950225353240967, -0.20753812789916992, 4.7148895263671875, 2.4184446334838867, 1.1977216005325317, 
96, 2272879559, -82.27589416503906, -65.14983367919922, -170.34495544433594, 9.005415916442871, -4.007843017578125, -0.17860668897628784, 4.536332607269287, 2.0127923488616943, 1.3054295778274536, 
97, 2272887892, -82.21631622314453, -65.1369857788086, -170.37075805664062, 9.008288383483887, -4.013336181640625, -0.1733671873807907, 4.362027645111084, 1.5741996765136719, 1.3721033334732056, 
98, 2272896225, -82.2528305053711, -65.1362533569336, -170.30931091308594, 9.01280689239502, -4.012251853942871, -0.21843697130680084, 4.243433475494385, 1.2653945684432983, 1.3368070125579834, 
99, 2272904558, -82.21061706542969, -65.12458038330078, -170.31849670410156, 8.991884231567383, -4.011123180389404, -0.1871386021375656, 4.08629035949707, 0.730722963809967, 1.3476675748825073, 
100, 2272912891, -82.26776123046875, -65.12568664550781, -170.23794555664062, 9.007242202758789, -4.007785320281982, -0.20354901254177094, 3.8454649448394775, 0.3054240942001343, 1.2460812330245972, 
101, 2272921224, -82.24148559570312, -65.11565399169922, -170.23207092285156, 9.015313148498535, -3.9923486709594727, -0.1909961998462677, 3.823436737060547, -0.043864376842975616, 1.2505637407302856, 
102, 2272929557, -82.31341552734375, -65.11714935302734, -170.1376953125, 9.012480735778809, -4.003303050994873, -0.1883850246667862, 3.5885796546936035, -0.3809989094734192, 1.2900352478027344, 
103, 2272937890, -82.30345916748047, -65.10797882080078, -170.11756896972656, 8.995473861694336, -3.9993722438812256, -0.21468378603458405, 3.41494083404541, -0.7649818658828735, 1.250000238418579, 
104, 2272946223, -82.39205169677734, -65.11055755615234, -170.00877380371094, 9.014573097229004, -4.0050435066223145, -0.21040160953998566, 3.1666367053985596, -1.1104923486709595, 1.2452361583709717, 
105, 2272954556, -82.39794921875, -65.10222625732422, -169.974853515625, 9.010123252868652, -3.9783647060394287, -0.2019941657781601, 3.019918441772461, -1.4669145345687866, 1.2412657737731934, 
106, 2272962889, -82.50164031982422, -65.10567474365234, -169.85250854492188, 8.994115829467773, -3.997246503829956, -0.1723901629447937, 2.8362643718719482, -1.7923434972763062, 1.223207950592041, 
107, 2272971222, -82.523193359375, -65.09822082519531, -169.80368041992188, 9.01231575012207, -3.9748106002807617, -0.20398041605949402, 2.7620084285736084, -2.222790241241455, 1.235015869140625, 
108, 2272979555, -82.64348602294922, -65.10274505615234, -169.6649169921875, 9.016585350036621, -4.004184246063232, -0.2064075469970703, 2.6341423988342285, -2.637254238128662, 1.1852474212646484, 
109, 2272987888, -82.68195343017578, -65.09638977050781, -169.60018920898438, 9.036502838134766, -3.990548610687256, -0.23806428909301758, 2.4663686752319336, -3.0333526134490967, 1.205713152885437, 
110, 2272996221, -82.81900787353516, -65.10174560546875, -169.44668579101562, 9.054336547851562, -4.001823425292969, -0.22030210494995117, 2.2254674434661865, -3.3835511207580566, 1.169264316558838, 
111, 2273004554, -82.87323760986328, -65.09612274169922, -169.36805725097656, 9.033419609069824, -3.991917610168457, -0.2227567881345749, 2.0941686630249023, -3.737231969833374, 1.192496418952942, 
112, 2273012887, -83.0228500366211, -65.10234832763672, -169.2036590576172, 9.0338134765625, -3.9774036407470703, -0.21141284704208374, 1.9088754653930664, -3.943913459777832, 1.1121445894241333, 
113, 2273021220, -83.08982849121094, -65.09774017333984, -169.11404418945312, 9.044803619384766, -3.983220338821411, -0.1996300220489502, 1.766383409500122, -4.30123233795166, 1.1238758563995361, 
114, 2273029553, -83.25533294677734, -65.10477447509766, -168.9287109375, 9.051974296569824, -3.999230146408081, -0.2195771485567093, 1.6185121536254883, -4.711929798126221, 1.078871488571167, 
115, 2273037886, -83.33500671386719, -65.10195922851562, -168.82681274414062, 9.050171852111816, -4.010334491729736, -0.2110675424337387, 1.576581597328186, -4.937976360321045, 0.9713686108589172, 
116, 2273046219, -83.51355743408203, -65.10945892333984, -168.63531494140625, 9.045892715454102, -3.989125967025757, -0.21210885047912598, 1.3950281143188477, -5.348879814147949, 1.0568690299987793, 
117, 2273054552, -83.61007690429688, -65.10710906982422, -168.516845703125, 9.032191276550293, -3.9974403381347656, -0.21831706166267395, 1.3675951957702637, -5.772104263305664, 0.9852772355079651, 
118, 2273062885, -83.80362701416016, -65.1148681640625, -168.30398559570312, 9.025045394897461, -3.9879307746887207, -0.20862330496311188, 1.0699068307876587, -6.049097061157227, 1.0580216646194458, 
119, 2273071218, -83.91289520263672, -65.11282348632812, -168.1744384765625, 9.03239631652832, -3.9782934188842773, -0.19428583979606628, 1.0426017045974731, -6.327983379364014, 0.9831510782241821, 
120, 2273079551, -84.11884307861328, -65.12187957763672, -167.95823669433594, 9.047785758972168, -3.979435682296753, -0.19602178037166595, 0.786510705947876, -6.646677017211914, 0.9099457859992981, 
121, 2273087884, -84.24141693115234, -65.11935424804688, -167.81716918945312, 9.046188354492188, -4.002317905426025, -0.19903215765953064, 0.7036486268043518, -6.896261215209961, 1.061991810798645, 
122, 2273096217, -84.45946502685547, -65.12714385986328, -167.58946228027344, 9.017829895019531, -3.9915239810943604, -0.20336297154426575, 0.5667149424552917, -7.232780933380127, 1.060685396194458, 
123, 2273104550, -84.59622192382812, -65.1247787475586, -167.4351043701172, 9.015080451965332, -4.018150329589844, -0.18797865509986877, 0.4593145251274109, -7.562898635864258, 1.0632727146148682, 
124, 2273112883, -84.82865905761719, -65.13292694091797, -167.19044494628906, 9.030814170837402, -4.016241550445557, -0.1973901391029358, 0.21723437309265137, -7.910765171051025, 0.9990065097808838, 
125, 2273121216, -84.98011779785156, -65.13191986083984, -167.0225830078125, 9.031643867492676, -3.98026180267334, -0.22239819169044495, 0.1645202338695526, -8.255430221557617, 0.9152222275733948, 
126, 2273129549, -85.2256851196289, -65.14029693603516, -166.7684326171875, 9.032368659973145, -4.035648345947266, -0.18221665918827057, -0.03536045178771019, -8.561468124389648, 0.9489561915397644, 
127, 2273137882, -85.38777160644531, -65.1393814086914, -166.5909423828125, 9.01458740234375, -4.013962268829346, -0.20971202850341797, -0.055416401475667953, -8.734698295593262, 0.8876357674598694, 
128, 2273146215, -85.6443862915039, -65.14784240722656, -166.33407592773438, 9.009992599487305, -4.005486011505127, -0.17837513983249664, -0.3808709383010864, -9.064200401306152, 0.8784915804862976, 
129, 2273154548, -85.8182601928711, -65.14710998535156, -166.14747619628906, 9.032295227050781, -4.017211437225342, -0.17912136018276215, -0.47633516788482666, -9.187865257263184, 0.8376880288124084, 
130, 2273162881, -86.081787109375, -65.15438842773438, -165.8869171142578, 9.032745361328125, -4.028566837310791, -0.2219952493906021, -0.5110040903091431, -9.430498123168945, 0.9369176626205444, 
131, 2273171214, -86.2668228149414, -65.15263366699219, -165.6896209716797, 9.032964706420898, -4.001218318939209, -0.20440633594989777, -0.6436472535133362, -9.715031623840332, 0.9209855198860168, 
132, 2273179547, -86.54264068603516, -65.15934753417969, -165.4237823486328, 9.046937942504883, -4.010896682739258, -0.22545158863067627, -0.6877294778823853, -10.079598426818848, 0.9386849403381348, 
133, 2273187880, -86.7413330078125, -65.1569595336914, -165.2131805419922, 9.041135787963867, -4.016920566558838, -0.21330346167087555, -0.8328598141670227, -10.376930236816406, 0.9610462784767151, 
134, 2273196213, -87.02607727050781, -65.16246795654297, -164.93841552734375, 9.06508731842041, -4.003474712371826, -0.20050743222236633, -0.9838301539421082, -10.485150337219238, 0.9892988204956055, 
135, 2273204546, -87.23066711425781, -65.1597900390625, -164.7234344482422, 9.062593460083008, -3.997360944747925, -0.21559953689575195, -1.0539875030517578, -10.594139099121094, 0.9175019860267639, 
136, 2273212879, -87.523681640625, -65.16522979736328, -164.4344482421875, 9.05073070526123, -3.99625563621521, -0.22912657260894775, -1.2244757413864136, -10.898153305053711, 0.8939881324768066, 
137, 2273221212, -87.73747253417969, -65.16194152832031, -164.21115112304688, 9.061944961547852, -4.019429683685303, -0.2401479333639145, -1.2505254745483398, -11.008319854736328, 0.9151454567909241, 
138, 2273229545, -88.03424835205078, -65.16653442382812, -163.93101501464844, 9.073528289794922, -3.9984636306762695, -0.23146682977676392, -1.1713006496429443, -11.19000244140625, 0.8741114735603333, 
139, 2273237878, -88.25517272949219, -65.16197967529297, -163.69993591308594, 9.055976867675781, -4.000703811645508, -0.24351359903812408, -1.2541370391845703, -11.393866539001465, 0.9824340343475342, 
140, 2273246211, -88.55810546875, -65.16533660888672, -163.4156036376953, 9.073663711547852, -4.003832817077637, -0.2146749496459961, -1.4307984113693237, -11.476984024047852, 0.9063854217529297, 
141, 2273254544, -88.78480529785156, -65.1605453491211, -163.17967224121094, 9.073112487792969, -4.008159160614014, -0.24528264999389648, -1.4127662181854248, -11.637791633605957, 0.9092543125152588, 
142, 2273262877, -89.09123229980469, -65.16326141357422, -162.93963623046875, 9.103302955627441, -4.015796184539795, -0.2029711753129959, -1.5370464324951172, -11.697599411010742, 0.8545165657997131, 
143, 2273271210, -89.32035064697266, -65.15776062011719, -162.70240783691406, 9.08430004119873, -4.023094177246094, -0.2321176379919052, -1.5519026517868042, -11.705592155456543, 0.8876614570617676, 
144, 2273279543, -89.6285171508789, -65.15853881835938, -162.4311065673828, 9.076112747192383, -4.0122971534729, -0.24073709547519684, -1.5168880224227905, -11.885198593139648, 0.9522606134414673, 
145, 2273287876, -89.86222839355469, -65.15219116210938, -162.1888427734375, 9.077738761901855, -4.013010025024414, -0.21127235889434814, -1.559151291847229, -11.958401679992676, 0.8797465562820435, 
146, 2273296209, -90.17172241210938, -65.15309143066406, -161.91976928710938, 9.071792602539062, -4.017912864685059, -0.25162461400032043, -1.5977519750595093, -12.006072044372559, 0.791351854801178, 
147, 2273304542, -90.40697479248047, -65.14557647705078, -161.67588806152344, 9.09382438659668, -4.021702766418457, -0.23090234398841858, -1.5627886056900024, -12.043876647949219, 0.9068463444709778, 
148, 2273312875, -90.71410369873047, -65.14531707763672, -161.3511199951172, 9.083626747131348, -4.019744396209717, -0.23718595504760742, -1.549059271812439, -11.988320350646973, 0.7945791482925415, 
149, 2273321208, -90.9512939453125, -65.13711547851562, -161.10504150390625, 9.079000473022461, -4.024677753448486, -0.2575019598007202, -1.553106427192688, -12.158604621887207, 0.8729844093322754, 
150, 2273329541, -91.2605972290039, -65.13518524169922, -160.91075134277344, 9.088366508483887, -4.017101287841797, -0.2162918746471405, -1.662299633026123, -12.153377532958984, 0.8458076119422913, 
151, 2273337874, -91.50054168701172, -65.12549591064453, -160.66317749023438, 9.089211463928223, -4.0243940353393555, -0.24002844095230103, -1.7161667346954346, -12.246973037719727, 0.936815083026886, 
152, 2273346207, -91.80967712402344, -65.12308502197266, -160.36647033691406, 9.07213306427002, -4.007477760314941, -0.24610908329486847, -1.6165530681610107, -12.270794868469238, 0.7629712820053101, 
153, 2273354540, -92.04893493652344, -65.11375427246094, -160.1193084716797, 9.061529159545898, -4.020987033843994, -0.24199405312538147, -1.6795637607574463, -12.229863166809082, 0.7774432897567749, 
154, 2273362873, -92.35670471191406, -65.1092300415039, -159.771728515625, 9.040163040161133, -4.029611587524414, -0.24746057391166687, -1.668601393699646, -12.279838562011719, 0.8733943104743958, 
155, 2273371206, -92.59550476074219, -65.0986328125, -159.52464294433594, 9.057769775390625, -4.013306140899658, -0.22932495176792145, -1.636122226715088, -12.23544692993164, 0.8109210729598999, 
156, 2273379539, -92.89895629882812, -65.0928726196289, -159.21180725097656, 9.06351089477539, -4.0415449142456055, -0.26050713658332825, -1.556718111038208, -12.210243225097656, 0.8839728832244873, 
157, 2273387872, -93.13571166992188, -65.08080291748047, -158.96661376953125, 9.075818061828613, -4.020073890686035, -0.22625288367271423, -1.591604471206665, -12.157732009887695, 0.8734966516494751, 
158, 2273396205, -93.43289947509766, -65.07366943359375, -158.63790893554688, 9.063801765441895, -4.025304794311523, -0.2720664441585541, -1.5869427919387817, -11.968366622924805, 0.9260057806968689, 
159, 2273404538, -93.66805267333984, -65.06149291992188, -158.39561462402344, 9.068087577819824, -4.037670612335205, -0.20690132677555084, -1.7185230255126953, -12.018980026245117, 0.780798614025116, 
160, 2273412871, -93.96157836914062, -65.05351257324219, -158.16578674316406, 9.073098182678223, -4.022247791290283, -0.24368435144424438, -1.5734955072402954, -11.898954391479492, 0.9051047563552856, 
161, 2273421204, -94.19001007080078, -65.03981018066406, -157.9287567138672, 9.079365730285645, -4.032097816467285, -0.23176409304141998, -1.4795936346054077, -11.777080535888672, 0.8701156377792358, 
162, 2273429537, -94.47526550292969, -65.03081512451172, -157.62884521484375, 9.078911781311035, -4.016493320465088, -0.245759055018425, -1.4832565784454346, -11.607412338256836, 0.9219076633453369, 
163, 2273437870, -94.69806671142578, -65.01593017578125, -157.39817810058594, 9.085057258605957, -4.023820877075195, -0.2670925557613373, -1.5006740093231201, -11.47872543334961, 0.932896077632904, 
164, 2273446203, -94.97592163085938, -65.00658416748047, -157.0815887451172, 9.093476295471191, -4.0276689529418945, -0.24811281263828278, -1.2814420461654663, -11.414050102233887, 0.86676025390625, 
165, 2273454536, -95.19161987304688, -64.99163818359375, -156.85629272460938, 9.074979782104492, -4.00090217590332, -0.26594534516334534, -1.2356691360473633, -11.214693069458008, 0.8628668189048767, 
166, 2273462869, -95.45777893066406, -64.98127746582031, -156.61627197265625, 9.077692985534668, -4.000481605529785, -0.28334784507751465, -1.2536633014678955, -10.914252281188965, 0.9370456337928772, 
167, 2273471202, -95.66515350341797, -64.9650650024414, -156.3997344970703, 9.07327938079834, -4.011324405670166, -0.2623828053474426, -1.1907674074172974, -10.799128532409668, 0.9645296335220337, 
168, 2273479535, -95.92284393310547, -64.9539794921875, -156.15185546875, 9.083076477050781, -4.021799564361572, -0.2746456265449524, -1.1226080656051636, -10.630102157592773, 0.9502113461494446, 
169, 2273487868, -96.12223815917969, -64.93705749511719, -155.9409637451172, 9.079041481018066, -4.007259368896484, -0.27778980135917664, -0.8448472023010254, -10.53381633758545, 0.9896316528320312, 
170, 2273496201, -96.36708068847656, -64.926025390625, -155.70196533203125, 9.10233211517334, -4.010469913482666, -0.2648641765117645, -0.8598058819770813, -10.162845611572266, 0.913147509098053, 
171, 2273504534, -96.55498504638672, -64.90814971923828, -155.50340270996094, 9.112347602844238, -4.00873327255249, -0.282756507396698, -0.8068867921829224, -9.935901641845703, 1.0949316024780273, 
172, 2273512867, -96.78844451904297, -64.89675903320312, -155.29302978515625, 9.092897415161133, -3.9984755516052246, -0.31691136956214905, -0.6874092221260071, -9.737711906433105, 0.9357905983924866, 
173, 2273521200, -96.96746063232422, -64.88053131103516, -155.1019287109375, 9.094301223754883, -4.01614236831665, -0.2862720489501953, -0.5524094700813293, -9.548898696899414, 0.8687324523925781, 
174, 2273529533, -97.18702697753906, -64.86819458007812, -154.89849853515625, 9.081271171569824, -4.003007411956787, -0.28520798683166504, -0.4856843948364258, -9.190733909606934, 1.0544613599777222, 
175, 2273537866, -97.35452270507812, -64.85162353515625, -154.71791076660156, 9.07973575592041, -4.016037464141846, -0.30589669942855835, -0.3193199038505554, -9.030184745788574, 0.9124816656112671, 
176, 2273546199, -97.56098175048828, -64.84051513671875, -154.52833557128906, 9.09786319732666, -4.017245292663574, -0.2907332181930542, -0.1408398598432541, -8.7274751663208, 0.9135316014289856, 
177, 2273554532, -97.71809387207031, -64.82328033447266, -154.35702514648438, 9.082781791687012, -4.006636619567871, -0.2970437705516815, -0.07826428860425949, -8.580551147460938, 0.99495929479599, 
178, 2273562865, -97.91265106201172, -64.81226348876953, -154.1748046875, 9.082867622375488, -4.030448913574219, -0.31355351209640503, 0.17363888025283813, -8.325432777404785, 0.9047971963882446, 
179, 2273571198, -98.05545043945312, -64.79573059082031, -154.01515197753906, 9.086973190307617, -4.019749164581299, -0.29084843397140503, 0.3696646988391876, -7.988504886627197, 0.9447044134140015, 
180, 2273579531, -98.23656463623047, -64.78475189208984, -153.84414672851562, 9.080950736999512, -4.014895439147949, -0.29567205905914307, 0.4036547839641571, -7.805157661437988, 0.9461643695831299, 
181, 2273587864, -98.36863708496094, -64.76781463623047, -153.69479370117188, 9.056861877441406, -4.014077186584473, -0.28820717334747314, 0.5377324819564819, -7.483762264251709, 1.0236601829528809, 
182, 2273596197, -98.53448486328125, -64.75699615478516, -153.5404815673828, 9.076265335083008, -4.013874053955078, -0.2946258783340454, 0.6286118030548096, -7.173446178436279, 0.982498049736023, 
183, 2273604530, -98.6541519165039, -64.74066162109375, -153.40219116210938, 9.05678939819336, -4.034135818481445, -0.29408255219459534, 0.8296194672584534, -6.921350002288818, 0.9976232051849365, 
184, 2273612863, -98.8044662475586, -64.73025512695312, -153.26312255859375, 9.054428100585938, -4.0278191566467285, -0.29931482672691345, 0.9026582837104797, -6.547740459442139, 1.0097001791000366, 
185, 2273621196, -98.91019439697266, -64.71401977539062, -153.13775634765625, 9.087800025939941, -4.027352809906006, -0.27533721923828125, 1.098107933998108, -6.269634246826172, 1.0547174215316772, 
186, 2273629529, -99.04417419433594, -64.70328521728516, -153.00994873046875, 9.06652545928955, -4.044240951538086, -0.2753763496875763, 1.2639601230621338, -5.928786754608154, 1.1368879079818726, 
187, 2273637862, -99.1347885131836, -64.68708801269531, -152.89889526367188, 9.055277824401855, -4.0441575050354, -0.267005056142807, 1.3534561395645142, -5.550617218017578, 1.144956350326538, 
188, 2273646195, -99.2523422241211, -64.67807006835938, -152.78749084472656, 9.056173324584961, -4.044153213500977, -0.2769346237182617, 1.5007892847061157, -5.208078861236572, 1.0335344076156616, 
189, 2273654528, -99.32794952392578, -64.66339874267578, -152.690673828125, 9.065264701843262, -4.021953105926514, -0.28177666664123535, 1.6172572374343872, -4.806574821472168, 1.0595585107803345, 
190, 2273662861, -99.42926025390625, -64.65392303466797, -152.5973358154297, 9.068188667297363, -4.023366451263428, -0.28497999906539917, 1.6317805051803589, -4.485193252563477, 1.207736849784851, 
191, 2273671194, -99.48981475830078, -64.63921356201172, -152.514404296875, 9.052545547485352, -4.017735958099365, -0.2530268430709839, 1.917353630065918, -4.106999397277832, 1.1702375411987305, 
192, 2273679527, -99.57317352294922, -64.63126373291016, -152.43637084960938, 9.065897941589355, -4.0206804275512695, -0.26694348454475403, 2.105605363845825, -3.7889091968536377, 1.1521669626235962, 
193, 2273687860, -99.61839294433594, -64.6171646118164, -152.36709594726562, 9.07052230834961, -4.012204647064209, -0.280394583940506, 2.271919012069702, -3.4047980308532715, 1.2087230682373047, 
194, 2273696193, -99.6817398071289, -64.61070251464844, -152.30665588378906, 9.057971000671387, -4.01314115524292, -0.25718989968299866, 2.3914730548858643, -2.8813581466674805, 1.1352229118347168, 
195, 2273704526, -99.70993041992188, -64.59723663330078, -152.25433349609375, 9.062178611755371, -4.01590633392334, -0.26873233914375305, 2.4837098121643066, -2.5333633422851562, 1.2768951654434204, 
196, 2273712859, -99.75616455078125, -64.59122467041016, -152.20985412597656, 9.066516876220703, -4.021856307983398, -0.27726420760154724, 2.6006901264190674, -2.124969959259033, 1.2362966537475586, 
197, 2273721192, -99.76752471923828, -64.57960510253906, -152.1735382080078, 9.079837799072266, -3.9973857402801514, -0.26840054988861084, 2.7675158977508545, -1.6843281984329224, 1.1995658874511719, 
198, 2273729525, -99.79743957519531, -64.57530975341797, -152.14561462402344, 9.084925651550293, -4.007194995880127, -0.25547197461128235, 2.9348533153533936, -1.4355368614196777, 1.1681370735168457, 
199, 2273737858, -99.79421997070312, -64.56441497802734, -152.12234497070312, 9.09066390991211, -4.012429237365723, -0.2718924283981323, 3.1086719036102295, -1.007138967514038, 1.226793885231018, 
200, 2273746191, -99.8042984008789, -64.56059265136719, -152.1072998046875, 9.076677322387695, -4.000797748565674, -0.2901422381401062, 3.3461415767669678, -0.6123979687690735, 1.288703441619873, 
201, 2273754524, -99.78517150878906, -64.55086517333984, -152.0989990234375, 9.061781883239746, -4.020242691040039, -0.3048749268054962, 3.3967676162719727, -0.22053855657577515, 1.223604679107666, 
202, 2273762857, -99.77993774414062, -64.54792022705078, -152.10391235351562, 9.097686767578125, -4.012748718261719, -0.2666012644767761, 3.525543212890625, 0.08749823272228241, 1.3263307809829712, 
203, 2273771190, -99.74742889404297, -64.53792572021484, -152.10792541503906, 9.083681106567383, -3.9945852756500244, -0.3299189805984497, 3.67105770111084, 0.40065786242485046, 1.3675694465637207, 
204, 2273779523, -99.72566986083984, -64.53646087646484, -152.12657165527344, 9.078462600708008, -3.999485492706299, -0.3026706874370575, 3.903775930404663, 0.7777890563011169, 1.298654556274414, 
205, 2273787856, -99.67774200439453, -64.52863311767578, -152.14381408691406, 9.07675838470459, -4.013370513916016, -0.27233317494392395, 4.086764335632324, 1.1213527917861938, 1.2307767868041992, 
206, 2273796189, -99.6398696899414, -64.5280990600586, -152.1745147705078, 9.0908784866333, -4.005105495452881, -0.2714237868785858, 4.271468639373779, 1.442837119102478, 1.3230137825012207, 
207, 2273804522, -99.57845306396484, -64.52100372314453, -152.20370483398438, 9.063880920410156, -4.016363143920898, -0.31639575958251953, 4.41265344619751, 1.7471343278884888, 1.2462990283966064, 
208, 2273812855, -99.52635192871094, -64.52178192138672, -152.24937438964844, 9.068456649780273, -3.9947078227996826, -0.2932349741458893, 4.587637424468994, 2.0369975566864014, 1.2909061908721924, 
209, 2273821188, -99.4522705078125, -64.51422119140625, -152.28976440429688, 9.0746488571167, -4.006738662719727, -0.3333227336406708, 4.722804069519043, 2.3109164237976074, 1.4011244773864746, 
210, 2273829521, -99.38518524169922, -64.51591491699219, -152.34890747070312, 9.077299118041992, -4.010858058929443, -0.2900759279727936, 4.844061374664307, 2.703582286834717, 1.3137283325195312, 
211, 2273837854, -99.29810333251953, -64.51010131835938, -152.40078735351562, 9.064605712890625, -4.0350470542907715, -0.29024258255958557, 5.034682750701904, 2.933880090713501, 1.2884728908538818, 
212, 2273846187, -99.2175521850586, -64.51194763183594, -152.46746826171875, 9.078070640563965, -4.028463840484619, -0.30293548107147217, 5.24032735824585, 3.1968488693237305, 1.3991135358810425, 
213, 2273854520, -99.11591339111328, -64.50655364990234, -152.53224182128906, 9.045530319213867, -4.0423078536987305, -0.2576141953468323, 5.393870830535889, 3.604921817779541, 1.3378570079803467, 
214, 2273862853, -99.01909637451172, -64.50970458984375, -152.6143341064453, 9.060766220092773, -4.022500991821289, -0.283556193113327, 5.594967842102051, 3.896667718887329, 1.3650081157684326, 
215, 2273871186, -98.90601348876953, -64.50475311279297, -152.6897430419922, 9.079729080200195, -4.028134346008301, -0.2867078483104706, 5.617778778076172, 4.162173271179199, 1.36432945728302, 
216, 2273879519, -98.79606628417969, -64.50971221923828, -152.78500366210938, 9.081518173217773, -4.022170066833496, -0.27108150720596313, 5.750165939331055, 4.528596878051758, 1.2544060945510864, 
217, 2273887852, -98.67034912109375, -64.50569915771484, -152.87184143066406, 9.082876205444336, -4.020560264587402, -0.2618584632873535, 5.890800476074219, 4.766591548919678, 1.3346168994903564, 
218, 2273896185, -98.54592895507812, -64.50975799560547, -152.9794464111328, 9.07329273223877, -4.036373615264893, -0.2817840278148651, 5.990683555603027, 5.147488594055176, 1.4641354084014893, 
219, 2273904518, -98.4050521850586, -64.50521850585938, -153.08119201660156, 9.089157104492188, -4.029035568237305, -0.28022074699401855, 6.101617813110352, 5.522992134094238, 1.4934123754501343, 
220, 2273912851, -98.26512145996094, -64.5111083984375, -153.2029266357422, 9.065729141235352, -4.026151180267334, -0.24656721949577332, 6.292086124420166, 5.854799747467041, 1.34267258644104, 
221, 2273921184, -98.11334991455078, -64.5076675415039, -153.31495666503906, 9.075432777404785, -4.03037691116333, -0.25156334042549133, 6.292879581451416, 6.075414657592773, 1.4181066751480103, 
222, 2273929517, -97.96068572998047, -64.51313781738281, -153.4468994140625, 9.078746795654297, -4.035358905792236, -0.2818607985973358, 6.417519569396973, 6.4391889572143555, 1.478633165359497, 
223, 2273937850, -97.79783630371094, -64.50942993164062, -153.5687255859375, 9.080486297607422, -4.009946346282959, -0.28528764843940735, 6.566670894622803, 6.5748419761657715, 1.488469123840332, 
224, 2273946183, -97.63424682617188, -64.51451873779297, -153.71067810058594, 9.077392578125, -4.025476932525635, -0.2765582799911499, 6.675889492034912, 6.88405704498291, 1.5667972564697266, 
225, 2273954516, -97.45680236816406, -64.51161193847656, -153.8456268310547, 9.081437110900879, -4.029721260070801, -0.2301768809556961, 6.890101432800293, 7.267988204956055, 1.4551703929901123, 
226, 2273962849, -97.28083038330078, -64.51725769042969, -154.0035858154297, 9.074690818786621, -4.014347076416016, -0.2585579752922058, 6.968506813049316, 7.399825096130371, 1.5518897771835327, 
227, 2273971182, -97.09579467773438, -64.51347351074219, -154.1464385986328, 9.09162425994873, -4.018170356750488, -0.26918861269950867, 6.951166152954102, 7.665316581726074, 1.5670534372329712, 
228, 2273979515, -96.90849304199219, -64.51924133300781, -154.31170654296875, 9.08057975769043, -4.0102128982543945, -0.24791058897972107, 7.127546310424805, 7.926787376403809, 1.5760698318481445, 
229, 2273987848, -96.71589660644531, -64.51564025878906, -154.46153259277344, 9.08502197265625, -4.024092197418213, -0.3003670573234558, 7.098499774932861, 8.035621643066406, 1.5475099086761475, 
230, 2273996181, -96.52371978759766, -64.5220718383789, -154.6306610107422, 9.091686248779297, -4.012300491333008, -0.24141734838485718, 7.203619480133057, 8.134005546569824, 1.4962044954299927, 
231, 2274004514, -96.32553100585938, -64.51826477050781, -154.78546142578125, 9.083151817321777, -4.0027689933776855, -0.26974624395370483, 7.231104373931885, 8.296015739440918, 1.553990125656128, 
232, 2274012847, -96.1261215209961, -64.52555084228516, -154.9607696533203, 9.082026481628418, -3.996746778488159, -0.294033944606781, 7.4175496101379395, 8.419194221496582, 1.3934143781661987, 
233, 2274021180, -95.92236328125, -64.5220947265625, -155.12098693847656, 9.064800262451172, -4.016111850738525, -0.2577071487903595, 7.317398548126221, 8.584151268005371, 1.4853695631027222, 
234, 2274029513, -95.71708679199219, -64.52820587158203, -155.30445861816406, 9.095988273620605, -3.99275279045105, -0.2641979455947876, 7.390270709991455, 8.726258277893066, 1.5255070924758911, 
235, 2274037846, -95.50310516357422, -64.52354431152344, -155.4730224609375, 9.087367057800293, -4.008587837219238, -0.25570690631866455, 7.635707855224609, 9.004531860351562, 1.6213555335998535, 
236, 2274046179, -95.2910385131836, -64.53025817871094, -155.6541290283203, 9.097855567932129, -4.0095415115356445, -0.23973016440868378, 7.659887313842773, 8.963550567626953, 1.441415786743164, 
237, 2274054512, -95.07591247558594, -64.52560424804688, -155.82447814941406, 9.084522247314453, -4.00393533706665, -0.23887792229652405, 7.580892562866211, 9.107373237609863, 1.566694974899292, 
238, 2274062845, -94.85877227783203, -64.53103637695312, -156.005859375, 9.070284843444824, -4.006580352783203, -0.2735651433467865, 7.69679594039917, 9.197278022766113, 1.5734825134277344, 
239, 2274071178, -94.63986206054688, -64.52638244628906, -156.17881774902344, 9.091906547546387, -4.048494338989258, -0.2561771273612976, 7.757220268249512, 9.2514009475708, 1.5139806270599365, 
240, 2274079511, -94.42203521728516, -64.53190612792969, -156.36851501464844, 9.072178840637207, -4.029037952423096, -0.23435375094413757, 7.750226974487305, 9.200350761413574, 1.5108813047409058, 
241, 2274087844, -94.2023696899414, -64.52647399902344, -156.54168701171875, 9.071648597717285, -4.015962600708008, -0.2713894844055176, 7.818207740783691, 9.262056350708008, 1.5494052171707153, 
242, 2274096177, -93.97838592529297, -64.53184509277344, -156.71875, 9.082179069519043, -4.018060207366943, -0.24901004135608673, 7.787983417510986, 9.523911476135254, 1.498714566230774, 
243, 2274104510, -93.7552719116211, -64.52572631835938, -156.89620971679688, 9.062785148620605, -4.0256147384643555, -0.26416289806365967, 7.765390872955322, 9.488486289978027, 1.5801935195922852, 
244, 2274112843, -93.53028869628906, -64.53042602539062, -157.0908203125, 9.070990562438965, -4.037454128265381, -0.24574396014213562, 7.868642807006836, 9.529162406921387, 1.532935380935669, 
245, 2274121176, -93.30766296386719, -64.52432250976562, -157.2672119140625, 9.069058418273926, -4.027018070220947, -0.24522975087165833, 7.827967166900635, 9.44291877746582, 1.5077563524246216, 
246, 2274129509, -93.08085632324219, -64.52848815917969, -157.49063110351562, 9.07569694519043, -4.030477523803711, -0.24823090434074402, 7.899969577789307, 9.615918159484863, 1.5390572547912598, 
247, 2274137842, -92.85615539550781, -64.52098083496094, -157.6688995361328, 9.086626052856445, -4.021839141845703, -0.2139691710472107, 7.872997760772705, 9.539460182189941, 1.6167707443237305, 
248, 2274146175, -92.63152313232422, -64.5245361328125, -157.8399658203125, 9.08449935913086, -4.015087127685547, -0.25369322299957275, 7.9037089347839355, 9.490177154541016, 1.5545024871826172, 
249, 2274154508, -92.40851593017578, -64.51734161376953, -158.01622009277344, 9.082009315490723, -4.020020008087158, -0.25647127628326416, 7.890363693237305, 9.44924545288086, 1.5033252239227295, 
250, 2274162841, -92.18698120117188, -64.52008056640625, -158.19483947753906, 9.0613374710083, -4.021392345428467, -0.25231829285621643, 7.870589256286621, 9.337465286254883, 1.593384861946106, 
251, 2274171174, -91.96621704101562, -64.5113296508789, -158.36968994140625, 9.083184242248535, -4.013409614562988, -0.23317614197731018, 7.775354385375977, 9.381059646606445, 1.6218934059143066, 
252, 2274179507, -91.74556732177734, -64.51432800292969, -158.58291625976562, 9.076834678649902, -4.026465892791748, -0.26834094524383545, 7.81282901763916, 9.331497192382812, 1.5121877193450928, 
253, 2274187840, -91.52679443359375, -64.50520324707031, -158.75576782226562, 9.075210571289062, -4.010356903076172, -0.23954467475414276, 7.761471748352051, 9.284520149230957, 1.5994807481765747, 
254, 2274196173, -91.3108139038086, -64.50756072998047, -158.93692016601562, 9.087078094482422, -4.023634910583496, -0.24326039850711823, 7.633042335510254, 9.166413307189941, 1.537110447883606, 
255, 2274204506, -91.09825134277344, -64.49885559082031, -159.10462951660156, 9.069979667663574, -4.027957439422607, -0.2340245246887207, 7.568367958068848, 9.034219741821289, 1.4824497699737549, 
256, 2274212839, -90.88896179199219, -64.49969482421875, -159.28790283203125, 9.08631706237793, -4.025153160095215, -0.240522101521492, 7.5591721534729, 8.844852447509766, 1.658931851387024, 
257, 2274221172, -90.68265533447266, -64.48983764648438, -159.44908142089844, 9.078811645507812, -4.022838592529297, -0.24570919573307037, 7.522439956665039, 8.705767631530762, 1.5638259649276733, 
258, 2274229505, -90.4809341430664, -64.49128723144531, -159.6238555908203, 9.059462547302246, -3.9983789920806885, -0.24328871071338654, 7.410121917724609, 8.512815475463867, 1.541387915611267, 
259, 2274237838, -90.28242492675781, -64.48124694824219, -159.77833557128906, 9.055742263793945, -3.9972331523895264, -0.2562846541404724, 7.320343971252441, 8.369195938110352, 1.5253790616989136, 
260, 2274246171, -90.08724212646484, -64.48251342773438, -159.94252014160156, 9.086487770080566, -3.9916083812713623, -0.22704218327999115, 7.278362274169922, 8.236898422241211, 1.5235093832015991, 
261, 2274254504, -89.8955078125, -64.47195434570312, -160.090087890625, 9.077198028564453, -3.9912402629852295, -0.2348858267068863, 7.253978729248047, 8.023455619812012, 1.5410549640655518, 
262, 2274262837, -89.7096176147461, -64.47317504882812, -160.23878479003906, 9.057036399841309, -3.9914662837982178, -0.25043153762817383, 7.142580986022949, 7.801507949829102, 1.5044523477554321, 
263, 2274271170, -89.52850341796875, -64.46186828613281, -160.3762969970703, 9.051164627075195, -3.9935975074768066, -0.24929669499397278, 7.074704170227051, 7.514781475067139, 1.5832161903381348, 
264, 2274279503, -89.351806640625, -64.46302795410156, -160.52426147460938, 9.06311321258545, -3.9911112785339355, -0.21171274781227112, 7.055723190307617, 7.3588433265686035, 1.493053913116455, 
265, 2274287836, -89.17937469482422, -64.45195770263672, -160.65402221679688, 9.055425643920898, -4.001870155334473, -0.23208923637866974, 6.874220848083496, 7.1240363121032715, 1.524405598640442, 
266, 2274296169, -89.01472473144531, -64.45365905761719, -160.78799438476562, 9.041662216186523, -4.002687931060791, -0.20261868834495544, 6.734392166137695, 6.862258434295654, 1.4101147651672363, 
267, 2274304502, -88.85009765625, -64.44361114501953, -160.91085815429688, 9.038300514221191, -3.994107484817505, -0.2065248340368271, 6.682011604309082, 6.773967266082764, 1.3771238327026367, 
268, 2274312835, -88.69474792480469, -64.44517517089844, -161.03529357910156, 9.030077934265137, -4.003849029541016, -0.19844385981559753, 6.537829399108887, 6.464879989624023, 1.4162880182266235, 
269, 2274321168, -88.54254913330078, -64.43428039550781, -161.14622497558594, 9.039602279663086, -4.020969390869141, -0.1834959238767624, 6.482553482055664, 6.1672682762146, 1.4621118307113647, 
270, 2274329501, -88.39917755126953, -64.43602752685547, -161.25994873046875, 9.02430248260498, -3.993217706680298, -0.18800942599773407, 6.402252674102783, 5.878672122955322, 1.4050946235656738, 
271, 2274337834, -88.25743103027344, -64.42549896240234, -161.36224365234375, 9.030981063842773, -4.016660690307617, -0.2158942073583603, 6.173466205596924, 5.726497650146484, 1.4030965566635132, 
272, 2274346167, -88.12572479248047, -64.4268569946289, -161.46395874023438, 9.034217834472656, -4.010519504547119, -0.1988859325647354, 6.02736234664917, 5.432369232177734, 1.4627008438110352, 
273, 2274354500, -87.99414825439453, -64.4162368774414, -161.556640625, 9.03402328491211, -3.99344539642334, -0.17269514501094818, 5.997010231018066, 5.236472129821777, 1.4089624881744385, 
274, 2274362833, -87.87224578857422, -64.41875457763672, -161.6529541015625, 9.027252197265625, -3.999044418334961, -0.21037080883979797, 5.790534019470215, 5.0264363288879395, 1.3279446363449097, 
275, 2274371166, -87.75432586669922, -64.40888214111328, -161.734619140625, 9.01722526550293, -4.011305809020996, -0.21030446887016296, 5.547889709472656, 4.669321537017822, 1.329020380973816, 
276, 2274379499, -87.64775085449219, -64.41136169433594, -161.81680297851562, 9.031071662902832, -4.015420436859131, -0.19884370267391205, 5.553114414215088, 4.309876918792725, 1.3615758419036865, 
277, 2274387832, -87.5410385131836, -64.40127563476562, -161.8875274658203, 9.031081199645996, -4.009495258331299, -0.19902046024799347, 5.390105724334717, 4.1089067459106445, 1.3660070896148682, 
278, 2274396165, -87.44547271728516, -64.40444946289062, -161.94818115234375, 9.03570556640625, -3.988199472427368, -0.20527684688568115, 5.322970390319824, 3.8327603340148926, 1.3070943355560303, 
279, 2274404498, -87.35250854492188, -64.39469146728516, -162.00503540039062, 9.015438079833984, -4.0022759437561035, -0.23320412635803223, 5.236804485321045, 3.3948593139648438, 1.3567858934402466, 
280, 2274412831, -87.27348327636719, -64.39776611328125, -162.0621795654297, 9.020734786987305, -4.012966632843018, -0.19842424988746643, 4.927026271820068, 3.126960277557373, 1.3597315549850464, 
281, 2274421164, -87.19613647460938, -64.38818359375, -162.1057586669922, 9.016880989074707, -3.998253107070923, -0.23701785504817963, 4.804129123687744, 2.710780143737793, 1.3612430095672607, 
282, 2274429497, -87.13314056396484, -64.39144897460938, -162.13604736328125, 9.034979820251465, -3.9998650550842285, -0.1898716688156128, 4.645602703094482, 2.3945212364196777, 1.3853201866149902, 
283, 2274437830, -87.06912994384766, -64.3822250366211, -162.16717529296875, 9.024428367614746, -4.00171422958374, -0.21960128843784332, 4.553570747375488, 2.068246841430664, 1.3503566980361938, 
284, 2274446163, -87.0208740234375, -64.38610076904297, -162.1834259033203, 9.012757301330566, -3.9749374389648438, -0.22555643320083618, 4.42342472076416, 1.7026551961898804, 1.364342212677002, 
285, 2274454496, -86.97303771972656, -64.37711334228516, -162.19915771484375, 9.015397071838379, -3.988028049468994, -0.2300184667110443, 4.273478984832764, 1.2726434469223022, 1.3686710596084595, 
286, 2274462829, -86.94359588623047, -64.38172912597656, -162.19744873046875, 9.021400451660156, -3.9721617698669434, -0.18435604870319366, 4.207727432250977, 0.7770335078239441, 1.3454903364181519, 
287, 2274471162, -86.91120147705078, -64.37313079833984, -162.19821166992188, 9.028155326843262, -3.992428779602051, -0.21152976155281067, 4.0434889793396, 0.49850425124168396, 1.3649826049804688, 
288, 2274479495, -86.8970718383789, -64.37892150878906, -162.1820831298828, 9.03990650177002, -3.9983298778533936, -0.20584453642368317, 3.9217443466186523, 0.07996764034032822, 1.262166976928711, 
289, 2274487828, -86.88114166259766, -64.37068939208984, -162.16830444335938, 9.025376319885254, -3.9930050373077393, -0.22014252841472626, 3.6458535194396973, -0.2574614882469177, 1.3658279180526733, 
290, 2274496161, -86.88308715820312, -64.37696838378906, -162.13906860351562, 9.022397994995117, -3.9974687099456787, -0.21264193952083588, 3.4919629096984863, -0.5849138498306274, 1.2598103284835815, 
291, 2274504494, -86.88212585449219, -64.36970520019531, -162.1111297607422, 9.010275840759277, -3.973062753677368, -0.21474598348140717, 3.382923126220703, -0.9950233697891235, 1.2984111309051514, 
292, 2274512827, -86.90103149414062, -64.37687683105469, -162.065673828125, 9.043560981750488, -3.981001377105713, -0.1975640505552292, 3.1943254470825195, -1.37080979347229, 1.2127314805984497, 
293, 2274521160, -86.91586303710938, -64.3712387084961, -162.0240478515625, 9.018698692321777, -3.9864988327026367, -0.19584932923316956, 2.970226764678955, -1.7128112316131592, 1.1450843811035156, 
294, 2274529493, -86.95068359375, -64.37895202636719, -161.96324157714844, 9.020439147949219, -3.9965343475341797, -0.17856036126613617, 2.8929483890533447, -2.092439651489258, 1.2032287120819092, 
295, 2274537826, -86.97882843017578, -64.37364959716797, -161.90904235839844, 9.018538475036621, -3.9924256801605225, -0.19021476805210114, 2.728120803833008, -2.3641810417175293, 1.1486703157424927, 
296, 2274546159, -87.02894592285156, -64.38225555419922, -161.83468627929688, 9.035331726074219, -4.004762649536133, -0.18407386541366577, 2.5602962970733643, -2.7708580493927, 1.1503608226776123, 
297, 2274554492, -87.07492065429688, -64.37709045410156, -161.76390075683594, 9.002657890319824, -3.998347043991089, -0.2053462564945221, 2.3925743103027344, -3.2238972187042236, 1.1677786111831665, 
298, 2274562825, -87.14225006103516, -64.38582611083984, -161.67413330078125, 9.025259971618652, -3.9931271076202393, -0.18293322622776031, 2.17966890335083, -3.527708053588867, 1.1831215620040894, 
299, 2274571158, -87.19805145263672, -64.38142395019531, -161.5947265625, 9.040386199951172, -3.999032497406006, -0.17403990030288696, 2.1422977447509766, -3.6722235679626465, 1.099824070930481, 
300, 2274579491, -87.27921295166016, -64.3909912109375, -161.50619506835938, 9.022478103637695, -3.9822800159454346, -0.18560639023780823, 1.9437106847763062, -4.167141437530518, 1.117600440979004, 
301, 2274587824, -87.35148620605469, -64.38711547851562, -161.41200256347656, 9.035400390625, -3.9899795055389404, -0.16814053058624268, 1.768688678741455, -4.4411115646362305, 1.0718790292739868, 
302, 2274596157, -87.4461441040039, -64.39781188964844, -161.2981414794922, 9.025476455688477, -4.00173282623291, -0.19237026572227478, 1.6160277128219604, -4.746510028839111, 1.0128637552261353, 
303, 2274604490, -87.53152465820312, -64.39308166503906, -161.19207763671875, 9.007068634033203, -4.016185283660889, -0.18261298537254333, 1.480067491531372, -5.051345348358154, 1.189576506614685, 
304, 2274612823, -87.63917541503906, -64.40270233154297, -161.08184814453125, 9.029144287109375, -3.997633218765259, -0.18271993100643158, 1.4031479358673096, -5.33945369720459, 1.1647305488586426, 
305, 2274621156, -87.73949432373047, -64.399658203125, -160.9626922607422, 9.027787208557129, -4.004599571228027, -0.17864981293678284, 1.1107357740402222, -5.737447738647461, 1.0005689859390259, 
306, 2274629489, -87.8622055053711, -64.40936279296875, -160.837646484375, 9.031667709350586, -4.0021467208862305, -0.21453145146369934, 0.9920650124549866, -5.969693183898926, 1.1647306680679321, 
307, 2274637822, -87.9748764038086, -64.4062728881836, -160.70664978027344, 9.035347938537598, -4.010766506195068, -0.19797253608703613, 0.9205755591392517, -6.348680019378662, 1.0083043575286865, 
308, 2274646155, -88.11247253417969, -64.41725158691406, -160.56753540039062, 9.0259370803833, -3.9995532035827637, -0.2011774480342865, 0.7094375491142273, -6.6525678634643555, 1.021598219871521, 
309, 2274654488, -88.23941802978516, -64.41312408447266, -160.42379760742188, 9.027984619140625, -3.988969087600708, -0.22497476637363434, 0.5881540775299072, -7.004993438720703, 1.1291522979736328, 
310, 2274662821, -88.39034271240234, -64.42418670654297, -160.27267456054688, 9.028190612792969, -3.9969232082366943, -0.2181333601474762, 0.5255529284477234, -7.285675048828125, 1.007049322128296, 
311, 2274671154, -88.53023529052734, -64.42102813720703, -160.11721801757812, 9.030111312866211, -4.004985809326172, -0.2018406242132187, 0.30247852206230164, -7.614101886749268, 0.9997493028640747, 
312, 2274679487, -88.69692993164062, -64.432373046875, -159.95651245117188, 9.022281646728516, -3.9929871559143066, -0.19212079048156738, 0.12366554886102676, -7.958639144897461, 0.9548988938331604, 
313, 2274687820, -88.85094451904297, -64.42898559570312, -159.78758239746094, 9.01624584197998, -3.9947659969329834, -0.21759383380413055, 0.06575173884630203, -8.309423446655273, 1.008867859840393, 
314, 2274696153, -89.03026580810547, -64.44014739990234, -159.6176300048828, 9.040027618408203, -3.9870691299438477, -0.24310456216335297, 0.054558318108320236, -8.61392593383789, 0.950441837310791, 
315, 2274704486, -89.19775390625, -64.43697357177734, -159.43626403808594, 9.02730655670166, -3.997039794921875, -0.23459996283054352, -0.19019852578639984, -8.953648567199707, 0.938044548034668, 
316, 2274712819, -89.38851928710938, -64.44810485839844, -159.2477264404297, 9.042757034301758, -3.9956445693969727, -0.22668945789337158, -0.22339454293251038, -9.09980297088623, 0.913147509098053, 
317, 2274721152, -89.56470489501953, -64.44546508789062, -159.0573272705078, 9.042842864990234, -4.009335517883301, -0.22556832432746887, -0.2579481899738312, -9.41736888885498, 0.8294914960861206, 
318, 2274729485, -89.76848602294922, -64.45637512207031, -158.85939025878906, 9.060995101928711, -3.9956445693969727, -0.22229331731796265, -0.40494823455810547, -9.728785514831543, 0.8896335959434509, 
319, 2274737818, -89.95767211914062, -64.45226287841797, -158.65713500976562, 9.059678077697754, -4.030837535858154, -0.20712272822856903, -0.5251558423042297, -10.02698802947998, 0.9406059384346008, 
320, 2274746151, -90.1708755493164, -64.46257019042969, -158.455810546875, 9.070934295654297, -4.006705284118652, -0.18980279564857483, -0.6538930535316467, -10.12268352508545, 0.8962422609329224, 
321, 2274754484, -90.3687515258789, -64.45787811279297, -158.24501037597656, 9.059314727783203, -4.006616592407227, -0.2209898829460144, -0.6436986327171326, -10.470754623413086, 0.9472656846046448, 
322, 2274762817, -90.59039306640625, -64.46768188476562, -158.01925659179688, 9.065258979797363, -4.013966083526611, -0.21545501053333282, -0.7728456258773804, -10.52585220336914, 0.87803053855896, 
323, 2274771150, -90.7942123413086, -64.46233367919922, -157.80419921875, 9.064523696899414, -4.012057781219482, -0.2231592833995819, -0.8938472270965576, -10.689192771911621, 0.945395827293396, 
324, 2274779483, -91.02483367919922, -64.47138977050781, -157.5854949951172, 9.07091999053955, -4.011422157287598, -0.20453616976737976, -1.0292954444885254, -10.90132999420166, 0.8854073882102966, 
325, 2274787816, -91.23509216308594, -64.46617889404297, -157.36439514160156, 9.056145668029785, -3.9997503757476807, -0.22570957243442535, -1.0050898790359497, -11.00273609161377, 0.8452954292297363, 
326, 2274796149, -91.46981811523438, -64.47502136230469, -157.1356964111328, 9.065776824951172, -4.007967472076416, -0.18374285101890564, -1.1055232286453247, -11.084444999694824, 0.8200141191482544, 
327, 2274804482, -91.68548583984375, -64.4683837890625, -156.91018676757812, 9.088675498962402, -4.011301517486572, -0.19351229071617126, -1.1746560335159302, -11.234237670898438, 0.9275684356689453, 
328, 2274812815, -91.92549133300781, -64.47605895996094, -156.66580200195312, 9.078044891357422, -4.023228645324707, -0.19952689111232758, -1.2423287630081177, -11.320326805114746, 0.8632509112358093, 
329, 2274821148, -92.14546966552734, -64.46944427490234, -156.43763732910156, 9.076976776123047, -4.028741836547852, -0.20880906283855438, -1.4077199697494507, -11.369531631469727, 0.8306439518928528, 
330, 2274829481, -92.38890838623047, -64.47551727294922, -156.18795776367188, 9.078226089477539, -4.025622844696045, -0.2108222246170044, -1.3970131874084473, -11.447527885437012, 0.9579724669456482, 
331, 2274837814, -92.61262512207031, -64.46832275390625, -155.95570373535156, 9.068832397460938, -4.0462260246276855, -0.23422063887119293, -1.4075663089752197, -11.584640502929688, 0.8008546829223633, 
332, 2274846147, -92.857177734375, -64.47354125976562, -155.68455505371094, 9.05642318725586, -3.999396562576294, -0.20470058917999268, -1.364662528038025, -11.532873153686523, 0.9543352723121643, 
333, 2274854480, -93.0821533203125, -64.46485137939453, -155.45285034179688, 9.066123008728027, -4.008923530578613, -0.21199087798595428, -1.62700355052948, -11.565431594848633, 0.8918878436088562, 
334, 2274862813, -93.32967376708984, -64.4696044921875, -155.18251037597656, 9.070136070251465, -4.016884803771973, -0.24410180747509003, -1.5291571617126465, -11.635663986206055, 0.9124303460121155, 
335, 2274871146, -93.55561828613281, -64.45976257324219, -154.94845581054688, 9.07520580291748, -4.0121965408325195, -0.2465791404247284, -1.4838968515396118, -11.69859790802002, 0.9244433045387268, 
336, 2274879479, -93.80636596679688, -64.4632339477539, -154.70030212402344, 9.071662902832031, -4.030515193939209, -0.2448810636997223, -1.6511578559875488, -11.773391723632812, 0.9559745192527771, 
337, 2274887812, -94.03569793701172, -64.45269775390625, -154.4645538330078, 9.067042350769043, -4.010273456573486, -0.22599156200885773, -1.700875163078308, -11.797982215881348, 0.9046181440353394, 
338, 2274896145, -94.28675842285156, -64.45626068115234, -154.2351837158203, 9.076033592224121, -4.0001678466796875, -0.23918835818767548, -1.5996220111846924, -11.832945823669434, 0.8410179615020752, 
339, 2274904478, -94.51760864257812, -64.44549560546875, -153.99658203125, 9.071300506591797, -4.004271984100342, -0.25346997380256653, -1.569397211074829, -11.953743934631348, 0.8268532156944275, 
340, 2274912811, -94.77173614501953, -64.44791412353516, -153.77098083496094, 9.080163955688477, -4.008539199829102, -0.232711523771286, -1.7607096433639526, -11.957788467407227, 0.8695520162582397, 
341, 2274921144, -95.00370788574219, -64.43571472167969, -153.5323486328125, 9.08079719543457, -4.013676166534424, -0.2507169842720032, -1.700618863105774, -11.975411415100098, 0.8968824744224548, 
342, 2274929477, -95.25751495361328, -64.43684387207031, -153.29302978515625, 9.08362102508545, -4.009073734283447, -0.2760481536388397, -1.6239808797836304, -12.042314529418945, 0.9117899537086487, 
343, 2274937810, -95.48965454101562, -64.42436981201172, -153.05380249023438, 9.063111305236816, -4.015557765960693, -0.25589853525161743, -1.6565366983413696, -12.014448165893555, 0.8262128233909607, 
344, 2274946143, -95.74439239501953, -64.42517852783203, -152.8038787841797, 9.076044082641602, -4.011166095733643, -0.2483716756105423, -1.5867377519607544, -12.147153854370117, 0.8402237296104431, 
345, 2274954476, -95.97462463378906, -64.41180419921875, -152.56588745117188, 9.088960647583008, -4.030157089233398, -0.25700297951698303, -1.559279203414917, -11.967366218566895, 0.835920512676239, 
346, 2274962809, -96.22461700439453, -64.41220092773438, -152.3174285888672, 9.085464477539062, -4.029755592346191, -0.2980458736419678, -1.4472682476043701, -11.978381156921387, 0.8054396510124207, 
347, 2274971142, -96.45411682128906, -64.39783477783203, -152.07974243164062, 9.090191841125488, -4.024335861206055, -0.26587578654289246, -1.5093059539794922, -11.972131729125977, 0.8591270446777344, 
348, 2274979475, -96.69953918457031, -64.3970718383789, -151.83819580078125, 9.084721565246582, -4.024298191070557, -0.25628364086151123, -1.3182239532470703, -11.826464653015137, 0.8577184677124023, 
349, 2274987808, -96.92286682128906, -64.38188171386719, -151.6056671142578, 9.073432922363281, -4.018089294433594, -0.26606863737106323, -1.323628544807434, -11.726517677307129, 0.8906071186065674, 
350, 2274996141, -97.16206359863281, -64.38033294677734, -151.3722686767578, 9.095521926879883, -4.03176736831665, -0.2829195261001587, -1.2195193767547607, -11.571717262268066, 0.8899922966957092, 
351, 2275004474, -97.37939453125, -64.3652572631836, -151.14453125, 9.086610794067383, -3.996879816055298, -0.27690285444259644, -1.1257586479187012, -11.487306594848633, 0.8149170279502869, 
352, 2275012807, -97.6138687133789, -64.36310577392578, -150.91297912597656, 9.084402084350586, -4.0377421379089355, -0.2650105059146881, -1.0848524570465088, -11.416328430175781, 0.8904275894165039, 
353, 2275021140, -97.82469940185547, -64.34699249267578, -150.6901397705078, 9.096149444580078, -4.027990818023682, -0.257345587015152, -0.880450963973999, -11.259825706481934, 0.8852792382240295, 
354, 2275029473, -98.04844665527344, -64.34455108642578, -150.47088623046875, 9.091958999633789, -4.027683258056641, -0.265270471572876, -0.9421044588088989, -10.93175983428955, 0.9097408652305603, 
355, 2275037806, -98.24874877929688, -64.3287353515625, -150.25900268554688, 9.08443546295166, -4.041378498077393, -0.24772663414478302, -0.8029167652130127, -10.699259757995605, 0.8483692407608032, 
356, 2275046139, -98.4603500366211, -64.3261947631836, -150.03794860839844, 9.094167709350586, -4.023497581481934, -0.2564418613910675, -0.7630097270011902, -10.371986389160156, 0.9163492918014526, 
357, 2275054472, -98.65060424804688, -64.31027221679688, -149.8358154296875, 9.089571952819824, -4.044425964355469, -0.24658839404582977, -0.6587085723876953, -10.207183837890625, 0.8599211573600769, 
358, 2275062805, -98.84821319580078, -64.30768585205078, -149.62843322753906, 9.085755348205566, -4.029479026794434, -0.2644878327846527, -0.6064426302909851, -9.714173316955566, 0.9625702500343323, 
359, 2275071138, -99.02592468261719, -64.29169464111328, -149.43820190429688, 9.089982032775879, -4.043912410736084, -0.23481114208698273, -0.4431646764278412, -9.604377746582031, 0.899136483669281, 
360, 2275079471, -99.21375274658203, -64.2889633178711, -149.24038696289062, 9.0752534866333, -4.029829978942871, -0.24931152164936066, -0.4557156562805176, -9.288862228393555, 0.9844064712524414, 
361, 2275087804, -99.38075256347656, -64.27223205566406, -149.06085205078125, 9.082263946533203, -4.031508445739746, -0.2508246898651123, -0.314709335565567, -9.076237678527832, 1.016244888305664, 
362, 2275096137, -99.55632019042969, -64.26995849609375, -148.87442016601562, 9.059757232666016, -4.027548313140869, -0.2287086546421051, -0.25820431113243103, -8.739436149597168, 0.9707283973693848, 
363, 2275104470, -99.71231842041016, -64.25357055664062, -148.70562744140625, 9.074392318725586, -4.016528606414795, -0.2395341396331787, -0.16276568174362183, -8.525788307189941, 1.0185757875442505, 
364, 2275112803, -99.87744903564453, -64.25114440917969, -148.52955627441406, 9.069828987121582, -4.009856224060059, -0.25916868448257446, -0.15615718066692352, -8.265034675598145, 1.0289238691329956, 
365, 2275121136, -100.02275085449219, -64.23523712158203, -148.37136840820312, 9.07911205291748, -4.0107741355896, -0.25388866662979126, -0.024525631219148636, -7.9789509773254395, 1.011506199836731, 
366, 2275129469, -100.17159271240234, -64.23280334472656, -148.209228515625, 9.065323829650879, -4.003353595733643, -0.3024124801158905, 0.27804258465766907, -7.607133388519287, 1.1093014478683472, 
367, 2275137802, -100.3058853149414, -64.21727752685547, -148.0604705810547, 9.068648338317871, -4.010307788848877, -0.26840436458587646, 0.270409494638443, -7.492970943450928, 1.0191136598587036, 
368, 2275146135, -100.44562530517578, -64.21541595458984, -147.90721130371094, 9.053812980651855, -4.010377407073975, -0.29556509852409363, 0.37745141983032227, -7.190313339233398, 1.0897833108901978, 
369, 2275154468, -100.56671142578125, -64.19954681396484, -147.77081298828125, 9.081125259399414, -4.025847434997559, -0.2804921269416809, 0.523708701133728, -6.8742594718933105, 1.1380916833877563, 
370, 2275162801, -100.69331359863281, -64.19844055175781, -147.62998962402344, 9.071228981018066, -4.012707710266113, -0.2720867395401001, 0.5784205794334412, -6.58827543258667, 1.0933436155319214, 
371, 2275171134, -100.80574798583984, -64.18306732177734, -147.50152587890625, 9.064452171325684, -4.006739616394043, -0.2924606204032898, 0.6991660594940186, -6.461536407470703, 1.1340957880020142, 
372, 2275179467, -100.92243957519531, -64.18331909179688, -147.3691864013672, 9.089975357055664, -4.008773326873779, -0.31707748770713806, 0.8322578072547913, -6.178679466247559, 0.9845088124275208, 
373, 2275187800, -101.02198028564453, -64.16907501220703, -147.25140380859375, 9.084744453430176, -4.007391929626465, -0.3099842071533203, 1.0963406562805176, -5.894796848297119, 1.0802549123764038, 
374, 2275196133, -101.12435913085938, -64.17073822021484, -147.13247680664062, 9.076069831848145, -4.008659362792969, -0.29754528403282166, 1.0710848569869995, -5.511043548583984, 0.9391971230506897, 
375, 2275204466, -101.21217346191406, -64.15742492675781, -147.0255584716797, 9.085710525512695, -4.006930828094482, -0.3148338198661804, 1.3254854679107666, -5.319859027862549, 1.0645276308059692, 
376, 2275212799, -101.30088806152344, -64.15852355957031, -146.91845703125, 9.078779220581055, -3.9925649166107178, -0.3172425329685211, 1.413291096687317, -4.971057415008545, 1.1082767248153687, 
377, 2275221132, -101.37542724609375, -64.14557647705078, -146.82313537597656, 9.07104778289795, -3.9927477836608887, -0.31698504090309143, 1.66221022605896, -4.717950344085693, 1.1293317079544067, 
378, 2275229465, -101.45169067382812, -64.14836883544922, -146.72679138183594, 9.085598945617676, -4.010251522064209, -0.32395896315574646, 1.718792200088501, -4.431915760040283, 1.0099180936813354, 
379, 2275237798, -101.51179504394531, -64.13656616210938, -146.6446075439453, 9.085548400878906, -4.003093719482422, -0.30044567584991455, 1.9841300249099731, -4.022984981536865, 1.1219291687011719, 
380, 2275246131, -101.57064819335938, -64.13941192626953, -146.56356811523438, 9.079795837402344, -4.003244400024414, -0.2981831729412079, 2.128568649291992, -3.7012953758239746, 1.1571999788284302, 
381, 2275254464, -101.61660766601562, -64.12853240966797, -146.4927978515625, 9.085196495056152, -4.004272937774658, -0.31721630692481995, 2.440934181213379, -3.4176180362701416, 1.1346594095230103, 
382, 2275262797, -101.6591567993164, -64.13306427001953, -146.4257354736328, 9.071742057800293, -4.004799842834473, -0.3174181580543518, 2.552727222442627, -2.9969420433044434, 1.103115439414978, 
383, 2275271130, -101.68865966796875, -64.12377166748047, -146.37060546875, 9.065526962280273, -4.015624523162842, -0.3100874125957489, 2.7253799438476562, -2.579545021057129, 1.11204195022583, 
384, 2275279463, -101.71432495117188, -64.1287612915039, -146.31871032714844, 9.082084655761719, -4.011092662811279, -0.28250500559806824, 2.919970989227295, -2.2608275413513184, 1.2045092582702637, 
385, 2275287796, -101.72550201416016, -64.11970520019531, -146.28021240234375, 9.077666282653809, -4.035652160644531, -0.2864726483821869, 3.1264731884002686, -1.7226210832595825, 1.2671104669570923, 
386, 2275296129, -101.7314453125, -64.12627410888672, -146.24722290039062, 9.0872802734375, -4.01285457611084, -0.2936494052410126, 3.2131006717681885, -1.3086440563201904, 1.226819396018982, 
387, 2275304462, -101.72726440429688, -64.11841583251953, -146.22442626953125, 9.057486534118652, -4.047841548919678, -0.2586735785007477, 3.281081438064575, -0.8897489309310913, 1.29059898853302, 
388, 2275312795, -101.71553039550781, -64.12622833251953, -146.20799255371094, 9.056979179382324, -4.031449317932129, -0.2681785225868225, 3.514580249786377, -0.4857867658138275, 1.2614498138427734, 
389, 2275321128, -101.69339752197266, -64.12043762207031, -146.20156860351562, 9.06228256225586, -4.017983913421631, -0.2733599543571472, 3.6679580211639404, -0.0023180879652500153, 1.2283048629760742, 
390, 2275329461, -101.66332244873047, -64.12946319580078, -146.20236206054688, 9.056855201721191, -4.006050109863281, -0.2487906962633133, 3.827509641647339, 0.37204673886299133, 1.303533911705017, 
391, 2275337794, -101.62791442871094, -64.1239242553711, -146.20761108398438, 9.049589157104492, -4.024685859680176, -0.26854270696640015, 3.997178316116333, 0.6031128168106079, 1.3285080194473267, 
392, 2275346127, -101.58395385742188, -64.13433837890625, -146.220947265625, 9.066925048828125, -4.0258564949035645, -0.24644093215465546, 4.122073650360107, 0.9911684393882751, 1.2702100276947021, 
393, 2275354460, -101.53546142578125, -64.12960815429688, -146.23883056640625, 9.058626174926758, -4.000015735626221, -0.24462905526161194, 4.203936576843262, 1.2693647146224976, 1.3669548034667969, 
394, 2275362793, -101.47532653808594, -64.14100646972656, -146.26800537109375, 9.061861991882324, -4.014952659606934, -0.24956057965755463, 4.315025329589844, 1.7713526487350464, 1.3250499963760376, 
395, 2275371126, -101.4085693359375, -64.13776397705078, -146.30307006835938, 9.081663131713867, -4.019620895385742, -0.2623131275177002, 4.534564971923828, 2.1864054203033447, 1.3787885904312134, 
396, 2275379459, -101.33415222167969, -64.14991760253906, -146.34571838378906, 9.048717498779297, -4.001509189605713, -0.23888954520225525, 4.561485290527344, 2.425283908843994, 1.369080901145935, 
397, 2275387792, -101.2569351196289, -64.14717102050781, -146.39039611816406, 9.070330619812012, -4.011929988861084, -0.2703646421432495, 4.748302936553955, 2.6908650398254395, 1.4179143905639648, 
398, 2275396125, -101.16905212402344, -64.16087341308594, -146.44491577148438, 9.085650444030762, -3.9896812438964844, -0.2698957026004791, 4.859737396240234, 3.018176317214966, 1.3058393001556396, 
399, 2275404458, -101.07941436767578, -64.15860748291016, -146.5016326904297, 9.069073677062988, -3.9966681003570557, -0.27342885732650757, 4.942215919494629, 3.3182220458984375, 1.4775829315185547, 
400, 2275412791, -100.98004150390625, -64.1724624633789, -146.56768798828125, 9.068517684936523, -4.011946678161621, -0.27681365609169006, 4.963475704193115, 3.565425395965576, 1.3962064981460571, 
401, 2275421124, -100.88072967529297, -64.17105865478516, -146.6332550048828, 9.071096420288086, -3.9993858337402344, -0.2886674404144287, 5.146693229675293, 3.793083667755127, 1.4617273807525635, 
402, 2275429457, -100.76883697509766, -64.185302734375, -146.70936584472656, 9.064281463623047, -3.9952938556671143, -0.2702232003211975, 5.358447074890137, 4.041414260864258, 1.4401605129241943, 
403, 2275437790, -100.65643310546875, -64.18492889404297, -146.78622436523438, 9.073464393615723, -4.000563144683838, -0.27473199367523193, 5.496879577636719, 4.392879962921143, 1.4397121667861938, 
404, 2275446123, -100.53292083740234, -64.2002182006836, -146.87307739257812, 9.077715873718262, -3.9851291179656982, -0.31765007972717285, 5.557981967926025, 4.57413911819458, 1.4088085889816284, 
405, 2275454456, -100.4090347290039, -64.20127868652344, -146.9598388671875, 9.070091247558594, -3.9892337322235107, -0.301540344953537, 5.8002166748046875, 4.9319963455200195, 1.3541735410690308, 
406, 2275462789, -100.27203369140625, -64.2169189453125, -147.05853271484375, 9.08991527557373, -4.002427101135254, -0.30443552136421204, 5.8760857582092285, 5.148923397064209, 1.4610618352890015, 
407, 2275471122, -100.1380844116211, -64.21824645996094, -147.1550750732422, 9.09386920928955, -4.0008955001831055, -0.3117541968822479, 5.9527482986450195, 5.439951419830322, 1.3942339420318604, 
408, 2275479455, -99.98804473876953, -64.23563385009766, -147.26573181152344, 9.090154647827148, -3.986144781112671, -0.3112967908382416, 6.1588921546936035, 5.745631694793701, 1.3359105587005615, 
409, 2275487788, -99.84415435791016, -64.23699188232422, -147.3700408935547, 9.075058937072754, -4.042266368865967, -0.2942824363708496, 6.291727066040039, 5.837304592132568, 1.4443867206573486, 
410, 2275496121, -99.68228912353516, -64.25377655029297, -147.49087524414062, 9.090267181396484, -4.028744220733643, -0.28281113505363464, 6.441340446472168, 6.225668430328369, 1.4723833799362183, 
411, 2275504454, -99.52814483642578, -64.2553939819336, -147.60401916503906, 9.088103294372559, -4.02251672744751, -0.27615413069725037, 6.569180965423584, 6.294494152069092, 1.4629571437835693, 
412, 2275512787, -99.35392761230469, -64.27315521240234, -147.73599243164062, 9.108712196350098, -4.026655197143555, -0.3039964735507965, 6.740231990814209, 6.757163047790527, 1.4150840044021606, 
413, 2275521120, -99.1872329711914, -64.2757797241211, -147.86119079589844, 9.091927528381348, -4.0380473136901855, -0.304940789937973, 6.771328449249268, 6.9318528175354, 1.4102685451507568, 
414, 2275529453, -99.001220703125, -64.29359436035156, -148.00311279296875, 9.103129386901855, -4.037465572357178, -0.2837495803833008, 7.02188777923584, 7.256999969482422, 1.4505599737167358, 
415, 2275537786, -98.82159423828125, -64.29557800292969, -148.13980102539062, 9.092040061950684, -4.022786617279053, -0.28171810507774353, 7.077163219451904, 7.506636619567871, 1.5445643663406372, 
416, 2275546119, -98.6236572265625, -64.31339263916016, -148.29315185546875, 9.08558464050293, -4.025795936584473, -0.2721936106681824, 7.2926554679870605, 7.763753414154053, 1.4872394800186157, 
417, 2275554452, -98.43534851074219, -64.3161849975586, -148.4370880126953, 9.078034400939941, -4.039968967437744, -0.23607094585895538, 7.329975605010986, 7.891464710235596, 1.4603190422058105, 
418, 2275562785, -98.22663116455078, -64.33374786376953, -148.60084533691406, 9.084684371948242, -4.032763957977295, -0.3003872036933899, 7.404333114624023, 8.275857925415039, 1.53823721408844, 
419, 2275571118, -98.02892303466797, -64.33602142333984, -148.75376892089844, 9.084927558898926, -4.03866720199585, -0.2654547393321991, 7.486964702606201, 8.34406852722168, 1.5422332286834717, 
420, 2275579451, -97.81402587890625, -64.35302734375, -148.921630859375, 9.07479190826416, -4.040411949157715, -0.22334489226341248, 7.4687275886535645, 8.554054260253906, 1.592667579650879, 
421, 2275587784, -97.61048126220703, -64.35466766357422, -149.0806884765625, 9.065094947814941, -4.0416789054870605, -0.24072100222110748, 7.521069526672363, 8.646866798400879, 1.6016966104507446, 
422, 2275596117, -97.38700866699219, -64.37152099609375, -149.258056640625, 9.078079223632812, -4.0452728271484375, -0.2441314309835434, 7.6128458976745605, 8.931671142578125, 1.5980337858200073, 
423, 2275604450, -97.17825317382812, -64.37299346923828, -149.42245483398438, 9.062021255493164, -4.02743673324585, -0.19915609061717987, 7.564037799835205, 8.920056343078613, 1.5993785858154297, 
424, 2275612783, -96.95333862304688, -64.38978576660156, -149.5980682373047, 9.070116996765137, -4.030557632446289, -0.22840477526187897, 7.69272518157959, 8.939985275268555, 1.5362907648086548, 
425, 2275621116, -96.73989868164062, -64.39131927490234, -149.7668914794922, 9.05600643157959, -4.011425018310547, -0.2210870087146759, 7.642391681671143, 9.1452054977417, 1.5594972372055054, 
426, 2275629449, -96.51045227050781, -64.40724182128906, -149.9574432373047, 9.084479331970215, -4.023952960968018, -0.23426589369773865, 7.67840576171875, 9.16469669342041, 1.6030926704406738, 
427, 2275637782, -96.29443359375, -64.4082260131836, -150.12806701660156, 9.080011367797852, -3.9970171451568604, -0.23120959103107452, 7.760087966918945, 9.227246284484863, 1.5699219703674316, 
428, 2275646115, -96.06446838378906, -64.4229736328125, -150.3072967529297, 9.092296600341797, -4.0119147300720215, -0.19001206755638123, 7.584580421447754, 9.195075988769531, 1.675606608390808, 
429, 2275654448, -95.84815216064453, -64.4227294921875, -150.47935485839844, 9.079194068908691, -4.015013694763184, -0.24951353669166565, 7.633221626281738, 9.287081718444824, 1.660007357597351, 
430, 2275662781, -95.6170883178711, -64.43785858154297, -150.65492248535156, 9.075488090515137, -4.0005879402160645, -0.2512199580669403, 7.6617817878723145, 9.203707695007324, 1.556449055671692, 
431, 2275671114, -95.4012451171875, -64.43800354003906, -150.82632446289062, 9.049915313720703, -3.996161937713623, -0.2290632128715515, 7.63501501083374, 9.259496688842773, 1.5465108156204224, 
432, 2275679447, -95.16993713378906, -64.45201873779297, -151.02252197265625, 9.07433032989502, -3.994871139526367, -0.23895129561424255, 7.603714942932129, 9.224608421325684, 1.6272982358932495, 
433, 2275687780, -94.95543670654297, -64.45146179199219, -151.1929168701172, 9.089763641357422, -3.9849514961242676, -0.26340222358703613, 7.582557678222656, 9.196587562561035, 1.561905026435852, 
434, 2275696113, -94.72412872314453, -64.46614074707031, -151.37261962890625, 9.101902961730957, -4.00897216796875, -0.2558853328227997, 7.615190505981445, 9.2110595703125, 1.4659541845321655, 
435, 2275704446, -94.51103973388672, -64.46538543701172, -151.5401611328125, 9.078947067260742, -4.014190196990967, -0.24341410398483276, 7.716775894165039, 9.046976089477539, 1.5119317770004272, 
436, 2275712779, -94.28279113769531, -64.4797134399414, -151.75985717773438, 9.093785285949707, -3.988892078399658, -0.27504998445510864, 7.5973381996154785, 9.0401611328125, 1.4412108659744263, 
437, 2275721112, -94.06889343261719, -64.47901916503906, -151.92945861816406, 9.073015213012695, -4.0167412757873535, -0.2539121210575104, 7.599411964416504, 9.14776611328125, 1.4461798667907715, 
438, 2275729445, -93.83983612060547, -64.4916000366211, -152.1199188232422, 9.078078269958496, -4.015315055847168, -0.24416157603263855, 7.703354835510254, 9.010680198669434, 1.5720995664596558, 
439, 2275737778, -93.6285171508789, -64.49016571044922, -152.28594970703125, 9.083266258239746, -4.029162406921387, -0.25165989995002747, 7.67069673538208, 8.959169387817383, 1.4567075967788696, 
440, 2275746111, -93.40130615234375, -64.50259399414062, -152.47218322753906, 9.079903602600098, -4.011444091796875, -0.26416081190109253, 7.664830684661865, 8.922771453857422, 1.5141087770462036, 
441, 2275754444, -93.19243621826172, -64.50007629394531, -152.63641357421875, 9.085253715515137, -4.024961471557617, -0.2699653208255768, 7.57277250289917, 8.857710838317871, 1.521793007850647, 
442, 2275762777, -92.96697998046875, -64.51211547851562, -152.8162384033203, 9.063460350036621, -4.020820140838623, -0.241238534450531, 7.570467472076416, 8.869903564453125, 1.4845244884490967, 
443, 2275771110, -92.7603988647461, -64.50923156738281, -152.97898864746094, 9.059527397155762, -4.035739898681641, -0.2486240267753601, 7.456021785736084, 8.780277252197266, 1.5002000331878662, 
444, 2275779443, -92.5407943725586, -64.52006530761719, -153.18080139160156, 9.074527740478516, -4.045225620269775, -0.2506866157054901, 7.471749782562256, 8.585816383361816, 1.5540413856506348, 
445, 2275787776, -92.33927917480469, -64.51728820800781, -153.3377227783203, 9.057524681091309, -4.044219017028809, -0.24257509410381317, 7.486351013183594, 8.47695541381836, 1.4181066751480103, 
446, 2275796109, -92.12239837646484, -64.52816009521484, -153.52574157714844, 9.051675796508789, -4.044699192047119, -0.22153012454509735, 7.418548583984375, 8.46706771850586, 1.481655478477478, 
447, 2275804442, -91.92443084716797, -64.5247573852539, -153.67904663085938, 9.056074142456055, -4.029783248901367, -0.21236340701580048, 7.444753646850586, 8.285411834716797, 1.435088872909546, 
448, 2275812775, -91.71600341796875, -64.5338134765625, -153.80958557128906, 9.06450080871582, -4.027451992034912, -0.23069828748703003, 7.3850202560424805, 8.00124740600586, 1.585008978843689, 
449, 2275821108, -91.52597045898438, -64.52851104736328, -153.95550537109375, 9.039066314697266, -4.037391662597656, -0.2319406121969223, 7.281641483306885, 7.907678127288818, 1.597534418106079, 
450, 2275829441, -91.32308959960938, -64.53751373291016, -154.14547729492188, 9.018586158752441, -4.029666423797607, -0.2531486451625824, 7.141736030578613, 7.823688983917236, 1.5664386749267578, 
451, 2275837774, -91.14183807373047, -64.53164672851562, -154.2835693359375, 9.045050621032715, -4.017956733703613, -0.2186516374349594, 7.085206031799316, 7.49603271484375, 1.612749457359314, 
452, 2275846107, -90.9506607055664, -64.53922271728516, -154.4298858642578, 9.034423828125, -4.02644681930542, -0.22571048140525818, 6.9561872482299805, 7.258485794067383, 1.6558068990707397, 
453, 2275854440, -90.77649688720703, -64.53357696533203, -154.56228637695312, 9.04011344909668, -3.9982714653015137, -0.1931639462709427, 6.848145484924316, 7.209305763244629, 1.539082646369934, 
454, 2275862773, -90.59658813476562, -64.54134368896484, -154.7088623046875, 9.044577598571777, -4.005025863647461, -0.1733170598745346, 6.779703617095947, 6.722225189208984, 1.5884153842926025, 
455, 2275871106, -90.43675231933594, -64.5352554321289, -154.82791137695312, 9.048601150512695, -4.013295650482178, -0.19142350554466248, 6.574995994567871, 6.5191826820373535, 1.5471512079238892, 
456, 2275879439, -90.267333984375, -64.54299926757812, -154.94699096679688, 9.036640167236328, -3.992457151412964, -0.2354910671710968, 6.411859035491943, 6.317880153656006, 1.5350100994110107, 
457, 2275887772, -90.11912536621094, -64.53667449951172, -155.0552215576172, 9.039965629577637, -4.013356685638428, -0.2060696929693222, 6.35004997253418, 5.967783451080322, 1.543436884880066, 
458, 2275896105, -89.96189880371094, -64.54454040527344, -155.18040466308594, 9.039241790771484, -3.992708206176758, -0.22494444251060486, 6.255918502807617, 5.72749662399292, 1.4925671815872192, 
459, 2275904438, -89.82563781738281, -64.53856658935547, -155.27882385253906, 9.025625228881836, -3.996023654937744, -0.20017729699611664, 5.983920574188232, 5.459059238433838, 1.4745346307754517, 
460, 2275912771, -89.68241882324219, -64.54694366455078, -155.3859100341797, 9.054984092712402, -3.991286039352417, -0.16775371134281158, 5.960356712341309, 5.095133304595947, 1.4103710651397705, 
461, 2275921104, -89.55958557128906, -64.54188537597656, -155.470703125, 9.026866912841797, -3.9699251651763916, -0.1800631731748581, 5.8468852043151855, 4.756999492645264, 1.3502545356750488, 
462, 2275929437, -89.43002319335938, -64.5498275756836, -155.56076049804688, 9.039851188659668, -3.9620485305786133, -0.2013947069644928, 5.628600120544434, 4.499780654907227, 1.4412873983383179, 
463, 2275937770, -89.3211669921875, -64.54505157470703, -155.63294982910156, 9.032112121582031, -3.982123613357544, -0.20676849782466888, 5.532264709472656, 4.108856201171875, 1.3084518909454346, 
464, 2275946103, -89.20491790771484, -64.55318450927734, -155.71337890625, 9.036592483520508, -3.988476514816284, -0.1994348019361496, 5.358856201171875, 3.9008684158325195, 1.411344289779663, 
465, 2275954436, -89.10781860351562, -64.54866027832031, -155.7754364013672, 9.023695945739746, -3.9616575241088867, -0.18722213804721832, 5.209500312805176, 3.5866587162017822, 1.279354214668274, 
466, 2275962769, -89.00650787353516, -64.5573959350586, -155.84591674804688, 9.042430877685547, -3.972900152206421, -0.1869456022977829, 5.07487154006958, 3.213075637817383, 1.3399574756622314, 
467, 2275971102, -88.92207336425781, -64.55229949951172, -155.89663696289062, 9.031865119934082, -4.004206657409668, -0.1876748502254486, 4.932149410247803, 3.0021419525146484, 1.348896861076355, 
468, 2275979435, -88.83203125, -64.56128692626953, -155.9535369873047, 9.034143447875977, -3.994166135787964, -0.22164447605609894, 4.731692314147949, 2.7643396854400635, 1.308605670928955, 
469, 2275987768, -88.76154327392578, -64.5570068359375, -155.9913787841797, 9.047008514404297, -4.008537292480469, -0.18641234934329987, 4.646960258483887, 2.335326671600342, 1.2605019807815552, 
470, 2275996101, -88.68704986572266, -64.56646728515625, -156.0320587158203, 9.038976669311523, -4.01076078414917, -0.1993066668510437, 4.538381576538086, 2.004441976547241, 1.2613986730575562, 
471, 2276004434, -88.62691497802734, -64.56208801269531, -156.05950927734375, 9.02576732635498, -4.009939670562744, -0.22478581964969635, 4.5280585289001465, 1.7999889850616455, 1.2890875339508057, 
472, 2276012767, -88.56532287597656, -64.57147216796875, -156.0899658203125, 9.020881652832031, -3.99708890914917, -0.22397072613239288, 4.230113983154297, 1.452813744544983, 1.2779711484909058, 
473, 2276021100, -88.52020263671875, -64.56819152832031, -156.10415649414062, 9.027318954467773, -4.020707607269287, -0.19149155914783478, 4.163722038269043, 1.1135532855987549, 1.1758471727371216, 
474, 2276029433, -88.47187042236328, -64.57833862304688, -156.11895751953125, 9.023280143737793, -3.979835271835327, -0.2237226516008377, 4.077428340911865, 0.8031600117683411, 1.202537178993225, 
475, 2276037766, -88.44017028808594, -64.57449340820312, -156.120849609375, 9.01690673828125, -4.0237908363342285, -0.20181171596050262, 3.8864221572875977, 0.47975462675094604, 1.2594261169433594, 
476, 2276046099, -88.40768432617188, -64.58419036865234, -156.12332153320312, 9.006616592407227, -4.008807182312012, -0.20328162610530853, 3.6939306259155273, 0.12607324123382568, 1.2723101377487183, 
477, 2276054432, -88.3909912109375, -64.58026885986328, -156.11195373535156, 9.003334999084473, -4.0180277824401855, -0.20110857486724854, 3.520599603652954, -0.20267261564731598, 1.2935444116592407, 
478, 2276062765, -88.37181854248047, -64.58998107910156, -156.10162353515625, 9.000897407531738, -4.0209641456604, -0.22779397666454315, 3.4681930541992188, -0.49019238352775574, 1.2910341024398804, 
479, 2276071098, -88.36872100830078, -64.5868911743164, -156.0771942138672, 9.004349708557129, -4.014753818511963, -0.19473151862621307, 3.305158853530884, -0.878094494342804, 1.2158565521240234, 
480, 2276079431, -88.36693572998047, -64.5960464477539, -156.05067443847656, 9.021820068359375, -4.018676280975342, -0.20346538722515106, 3.1824917793273926, -1.303239345550537, 1.3787373304367065, 
481, 2276087764, -88.38167572021484, -64.59370422363281, -156.009521484375, 9.01051139831543, -4.03572416305542, -0.21455708146095276, 2.9768099784851074, -1.7433946132659912, 1.1535115242004395, 
482, 2276096097, -88.39704132080078, -64.60432434082031, -155.96546936035156, 9.017557144165039, -4.031583309173584, -0.1980212777853012, 2.811981678009033, -2.0671327114105225, 1.2159589529037476, 
483, 2276104430, -88.42794799804688, -64.6018295288086, -155.90895080566406, 9.00426959991455, -4.007849216461182, -0.20044374465942383, 2.7017123699188232, -2.532850742340088, 1.1973885297775269, 
484, 2276112763, -88.4612045288086, -64.61241912841797, -155.8502960205078, 9.025420188903809, -3.990907907485962, -0.20391494035720825, 2.5988972187042236, -2.948723316192627, 1.2469520568847656, 
485, 2276121096, -88.50686645507812, -64.60992431640625, -155.78086853027344, 9.011838912963867, -4.010458469390869, -0.16364189982414246, 2.336146354675293, -3.197770595550537, 1.2126801013946533, 
486, 2276129429, -88.55904388427734, -64.62059783935547, -155.7064208984375, 9.002859115600586, -3.9805867671966553, -0.18673887848854065, 2.0784671306610107, -3.7422525882720947, 1.2500771284103394, 
487, 2276137762, -88.62151336669922, -64.61882781982422, -155.6209259033203, 9.005949974060059, -3.9803342819213867, -0.1966923475265503, 2.0603835582733154, -4.024957180023193, 1.1448026895523071, 
488, 2276146095, -88.68790435791016, -64.62995910644531, -155.53221130371094, 9.016229629516602, -3.981992483139038, -0.20475740730762482, 1.9585411548614502, -4.459015846252441, 1.2070964574813843, 
489, 2276154428, -88.76676177978516, -64.62907409667969, -155.4308624267578, 9.030641555786133, -3.9570465087890625, -0.19090378284454346, 1.8131037950515747, -4.842102527618408, 1.049568772315979, 
490, 2276162761, -88.84823608398438, -64.6399917602539, -155.3271942138672, 9.033507347106934, -3.9996161460876465, -0.2062569111585617, 1.6068066358566284, -5.113357067108154, 1.231993556022644, 
491, 2276171094, -88.94029235839844, -64.63886260986328, -155.21495056152344, 9.015000343322754, -3.972982168197632, -0.16285614669322968, 1.4126760959625244, -5.400799751281738, 1.0806132555007935, 
492, 2276179427, -89.03467559814453, -64.65062713623047, -155.10430908203125, 9.039595603942871, -3.9782845973968506, -0.21038329601287842, 1.2841695547103882, -5.654841899871826, 1.1182405948638916, 
493, 2276187760, -89.13997650146484, -64.64938354492188, -154.97970581054688, 9.049271583557129, -3.985400915145874, -0.22767217457294464, 1.161118984222412, -6.035367012023926, 1.089732050895691, 
494, 2276196093, -89.24987030029297, -64.66175079345703, -154.83865356445312, 9.049185752868652, -3.9793238639831543, -0.20711243152618408, 0.9563843607902527, -6.350986003875732, 1.0351994037628174, 
495, 2276204426, -89.36815643310547, -64.66104888916016, -154.70326232910156, 9.037153244018555, -3.9835145473480225, -0.20811402797698975, 0.7687856554985046, -6.586048126220703, 1.0081508159637451, 
496, 2276212759, -89.49142456054688, -64.67374420166016, -154.56967163085938, 9.032032012939453, -3.9739787578582764, -0.1777152121067047, 0.7140993475914001, -6.955789089202881, 0.9846112728118896, 
497, 2276221092, -89.62162780761719, -64.6733169555664, -154.42205810546875, 9.038818359375, -3.9736640453338623, -0.1850634068250656, 0.674371600151062, -7.214723587036133, 0.9530289173126221, 
498, 2276229425, -89.7571029663086, -64.68616485595703, -154.27993774414062, 9.024136543273926, -3.987260341644287, -0.18133485317230225, 0.4861069619655609, -7.503190994262695, 0.9349964261054993, 
499, 2276237758, -89.90010833740234, -64.6856460571289, -154.12124633789062, 9.0370512008667, -4.001110076904297, -0.17695178091526031, 0.33513668179512024, -7.7791852951049805, 0.9367126226425171, 
500, 2276246091, -90.0462875366211, -64.69844818115234, -153.96971130371094, 9.045074462890625, -3.9848036766052246, -0.21088320016860962, 0.17609789967536926, -7.931103229522705, 0.8973692655563354, 
501, 2276254424, -90.20016479492188, -64.6983413696289, -153.80162048339844, 9.041260719299316, -4.002898693084717, -0.18652749061584473, 0.05852852389216423, -8.260269165039062, 0.8462686538696289, 
502, 2276262757, -90.35972595214844, -64.7109375, -153.6260223388672, 9.02997875213623, -3.994724750518799, -0.23009136319160461, -0.07260356098413467, -8.54515266418457, 0.8757251501083374, 
503, 2276271090, -90.52220916748047, -64.7104721069336, -153.4508056640625, 9.028800964355469, -4.001809120178223, -0.22835686802864075, -0.20321053266525269, -8.621379852294922, 0.8429133296012878, 
504, 2276279423, -90.69017028808594, -64.72216796875, -153.2726287841797, 9.031134605407715, -4.014186859130859, -0.2030721753835678, -0.323443740606308, -8.865073204040527, 0.9249044060707092, 
505, 2276287756, -90.86471557617188, -64.72077941894531, -153.08566284179688, 9.035937309265137, -4.0365705490112305, -0.20016956329345703, -0.3692420721054077, -9.224725723266602, 0.8938345313072205, 
506, 2276296089, -91.0447769165039, -64.73141479492188, -152.8934783935547, 9.040912628173828, -4.017569541931152, -0.1994059532880783, -0.40233567357063293, -9.489703178405762, 0.9825621247291565, 
507, 2276304422, -91.22730255126953, -64.73014068603516, -152.69923400878906, 9.032175064086914, -4.025095462799072, -0.21006251871585846, -0.5360676646232605, -9.591777801513672, 0.8162233829498291, 
508, 2276312755, -91.4158706665039, -64.7409439086914, -152.4929656982422, 9.037861824035645, -4.020589351654053, -0.2003834992647171, -0.722206175327301, -9.797842979431152, 0.884715735912323, 
509, 2276321088, -91.60848999023438, -64.73829650878906, -152.28990173339844, 9.045815467834473, -4.0395827293396, -0.24180282652378082, -0.7915183305740356, -10.041665077209473, 0.9084600806236267, 
510, 2276329421, -91.80474090576172, -64.7478256225586, -152.07179260253906, 9.061152458190918, -4.027358531951904, -0.24305126070976257, -0.8121634721755981, -10.168148040771484, 0.947342574596405, 
511, 2276337754, -92.00540161132812, -64.7449722290039, -151.86038208007812, 9.026243209838867, -4.026530742645264, -0.22561226785182953, -0.8496114611625671, -10.467423439025879, 0.8504694700241089, 
512, 2276346087, -92.21297454833984, -64.75389862060547, -151.66505432128906, 9.032781600952148, -4.032454490661621, -0.22019535303115845, -1.025504469871521, -10.683225631713867, 0.9372249245643616, 
513, 2276354420, -92.42129516601562, -64.75051879882812, -151.44752502441406, 9.044920921325684, -4.0354695320129395, -0.22357724606990814, -1.095636248588562, -10.78378677368164, 0.8297221064567566, 
514, 2276362753, -92.63487243652344, -64.7581558227539, -151.19508361816406, 9.06482982635498, -4.013442039489746, -0.23071236908435822, -1.1022958755493164, -10.982373237609863, 0.9673728346824646, 
515, 2276371086, -92.8499526977539, -64.75298309326172, -150.9713897705078, 9.0677490234375, -4.014048099517822, -0.24235759675502777, -1.2510120868682861, -11.102707862854004, 0.9470095634460449, 
516, 2276379419, -93.07207489013672, -64.7601089477539, -150.78346252441406, 9.056408882141113, -4.03189754486084, -0.24528717994689941, -1.275909185409546, -11.355725288391113, 0.9548474550247192, 
517, 2276387752, -93.29403686523438, -64.75443267822266, -150.55247497558594, 9.07185173034668, -3.98128342628479, -0.24750161170959473, -1.2586708068847656, -11.487946510314941, 0.9010832905769348, 
518, 2276396085, -93.52046203613281, -64.76061248779297, -150.31817626953125, 9.059062957763672, -3.9975059032440186, -0.24531221389770508, -1.299115777015686, -11.590404510498047, 0.940836489200592, 
519, 2276404418, -93.74678039550781, -64.75432586669922, -150.08270263671875, 9.069835662841797, -4.010910987854004, -0.2609705924987793, -1.3102067708969116, -11.71837329864502, 0.8723184466362, 
520, 2276412751, -93.97843933105469, -64.75997161865234, -149.84295654296875, 9.094672203063965, -4.010073661804199, -0.23373943567276, -1.4061322212219238, -11.82692813873291, 0.8845109343528748, 
521, 2276421084, -94.20767974853516, -64.75270080566406, -149.605712890625, 9.074286460876465, -4.006955146789551, -0.24056635797023773, -1.465505838394165, -11.817399024963379, 0.8885324001312256, 
522, 2276429417, -94.43911743164062, -64.75679016113281, -149.3045196533203, 9.064984321594238, -4.001843452453613, -0.2504834830760956, -1.4039548635482788, -11.841910362243652, 0.9518507719039917, 
523, 2276437750, -94.66998291015625, -64.74853515625, -149.06544494628906, 9.07762336730957, -3.999677896499634, -0.2576425075531006, -1.4782617092132568, -11.911837577819824, 0.9006733894348145, 
524, 2276446083, -94.90460205078125, -64.7524642944336, -148.7965545654297, 9.09496021270752, -4.000072956085205, -0.23773789405822754, -1.5371488332748413, -11.944648742675781, 0.8723697066307068, 
525, 2276454416, -95.13606262207031, -64.74279022216797, -148.55645751953125, 9.09367847442627, -3.9993510246276855, -0.22637873888015747, -1.438482642173767, -11.982812881469727, 0.970933198928833, 
526, 2276462749, -95.37068176269531, -64.7463150024414, -148.33738708496094, 9.078458786010742, -4.008088111877441, -0.2191476672887802, -1.4771089553833008, -11.971056938171387, 0.83530592918396, 
527, 2276471082, -95.60245513916016, -64.73748016357422, -148.097900390625, 9.083427429199219, -4.012112617492676, -0.2240898311138153, -1.5248539447784424, -11.953922271728516, 0.7753942608833313, 
528, 2276479415, -95.83541870117188, -64.740478515625, -147.8690185546875, 9.077970504760742, -4.000713348388672, -0.24561141431331635, -1.4655569791793823, -11.894574165344238, 0.7960136532783508, 
529, 2276487748, -96.0635986328125, -64.73020935058594, -147.63189697265625, 9.086143493652344, -4.018198490142822, -0.23544974625110626, -1.355672001838684, -11.851284980773926, 0.8633278608322144, 
530, 2276496081, -96.29493713378906, -64.7316665649414, -147.3716583251953, 9.075257301330566, -3.9861528873443604, -0.22374747693538666, -1.4840248823165894, -11.834532737731934, 0.8742395043373108, 
531, 2276504414, -96.52159881591797, -64.72122192382812, -147.1367645263672, 9.085766792297363, -4.024806022644043, -0.23517203330993652, -1.429569125175476, -11.738916397094727, 0.8039541244506836, 
532, 2276512747, -96.74851989746094, -64.7225341796875, -146.902099609375, 9.093205451965332, -4.026437282562256, -0.2654305100440979, -1.3559279441833496, -11.64980411529541, 0.8166587352752686, 
533, 2276521080, -96.97305297851562, -64.71087646484375, -146.66896057128906, 9.06542682647705, -4.032485485076904, -0.23046495020389557, -1.362177848815918, -11.674777030944824, 0.8669649958610535, 
534, 2276529413, -97.19816589355469, -64.71117401123047, -146.437255859375, 9.073321342468262, -4.025734901428223, -0.23595358431339264, -1.420296549797058, -11.548294067382812, 0.8547214269638062, 
535, 2276537746, -97.41692352294922, -64.69966125488281, -146.2109375, 9.073129653930664, -4.041061878204346, -0.24816502630710602, -1.412971019744873, -11.32890796661377, 0.8030319809913635, 
536, 2276546079, -97.6349105834961, -64.69937896728516, -145.9833984375, 9.076935768127441, -4.0326762199401855, -0.23458750545978546, -1.294044017791748, -11.231958389282227, 0.8656075596809387, 
537, 2276554412, -97.84829711914062, -64.68701171875, -145.7614288330078, 9.084878921508789, -4.0216264724731445, -0.27290666103363037, -1.2410225868225098, -11.12781047821045, 0.8469858765602112, 
538, 2276562745, -98.06209564208984, -64.68605041503906, -145.54153442382812, 9.067468643188477, -4.010681629180908, -0.2766796350479126, -1.291764259338379, -11.032371520996094, 0.8916828036308289, 
539, 2276571078, -98.2701644897461, -64.67306518554688, -145.32504272460938, 9.056087493896484, -4.023291110992432, -0.26681479811668396, -1.204240322113037, -10.8644437789917, 0.8781583905220032, 
540, 2276579411, -98.47787475585938, -64.67149353027344, -145.11041259765625, 9.052109718322754, -4.039234161376953, -0.25295937061309814, -1.0920246839523315, -10.812986373901367, 0.9068208336830139, 
541, 2276587744, -98.67892456054688, -64.65771484375, -144.89987182617188, 9.065779685974121, -4.04443883895874, -0.2642340064048767, -1.004974603652954, -10.58446979522705, 0.9382623434066772, 
542, 2276596077, -98.87728118896484, -64.65633392333984, -144.69180297851562, 9.058286666870117, -4.056957721710205, -0.3015274703502655, -0.917630136013031, -10.394463539123535, 0.8653386831283569, 
543, 2276604410, -99.07208251953125, -64.64299011230469, -144.48709106445312, 9.069944381713867, -4.036704063415527, -0.27516838908195496, -0.8872516751289368, -10.284423828125, 0.8583075404167175, 
544, 2276612743, -99.26138305664062, -64.64102172851562, -144.2871856689453, 9.067926406860352, -4.035430431365967, -0.25912415981292725, -0.7678506970405579, -9.996224403381348, 0.9266718626022339, 
545, 2276621076, -99.44686126708984, -64.62716674804688, -144.09078979492188, 9.08001708984375, -4.035663604736328, -0.27255725860595703, -0.6710289716720581, -9.879270553588867, 0.9188594818115234, 
546, 2276629409, -99.62982940673828, -64.62457275390625, -143.8970947265625, 9.097871780395508, -4.015072345733643, -0.2629729211330414, -0.6544309258460999, -9.735190391540527, 0.9775161147117615, 
547, 2276637742, -99.80650329589844, -64.610595703125, -143.70875549316406, 9.10122299194336, -3.993431806564331, -0.29573512077331543, -0.49664732813835144, -9.480304718017578, 0.9421429634094238, 
548, 2276646075, -99.97746276855469, -64.60796356201172, -143.5254364013672, 9.086273193359375, -4.009389877319336, -0.28197813034057617, -0.3560507297515869, -9.233253479003906, 1.006152868270874, 
549, 2276654408, -100.14456939697266, -64.59407043457031, -143.3450164794922, 9.074773788452148, -3.995635509490967, -0.28387343883514404, -0.21563345193862915, -9.083205223083496, 0.948546290397644, 
550, 2276662741, -100.30555725097656, -64.5914306640625, -143.1703338623047, 9.065656661987305, -3.9997341632843018, -0.32261034846305847, -0.12647029757499695, -8.811131477355957, 1.0216238498687744, 
551, 2276671074, -100.46112823486328, -64.5781478881836, -143.00059509277344, 9.071340560913086, -3.990186929702759, -0.29193314909935, 0.0010501835495233536, -8.532422065734863, 0.9295148849487305, 
552, 2276679407, -100.61209106445312, -64.5762710571289, -142.83544921875, 9.073922157287598, -4.028454780578613, -0.3054736852645874, 0.07399952411651611, -8.360601425170898, 0.9649393558502197, 
553, 2276687740, -100.75762939453125, -64.56288146972656, -142.67507934570312, 9.090048789978027, -3.995250701904297, -0.2681126892566681, 0.20245495438575745, -8.069574356079102, 0.9802825450897217, 
554, 2276696073, -100.89444732666016, -64.5616455078125, -142.52163696289062, 9.085723876953125, -3.9751534461975098, -0.2986936569213867, 0.47163498401641846, -7.774613380432129, 0.9578701257705688, 
555, 2276704406, -101.02700805664062, -64.54841613769531, -142.37266540527344, 9.090797424316406, -3.9936070442199707, -0.28557297587394714, 0.5134117603302002, -7.49461030960083, 1.0369924306869507, 
556, 2276712739, -101.15046691894531, -64.54762268066406, -142.23167419433594, 9.095210075378418, -3.9990854263305664, -0.2734304964542389, 0.7226800918579102, -7.166082382202148, 0.9848673939704895, 
557, 2276721072, -101.2694091796875, -64.53559875488281, -142.095947265625, 9.073685646057129, -4.005918502807617, -0.2801419794559479, 0.7132667899131775, -6.798248291015625, 0.9955612421035767, 
558, 2276729405, -101.3779067993164, -64.53593444824219, -141.9693603515625, 9.065926551818848, -3.996190071105957, -0.2565537393093109, 0.9268254041671753, -6.43845796585083, 0.9686022400856018, 
559, 2276737738, -101.48403930664062, -64.52413177490234, -141.84556579589844, 9.081329345703125, -4.017840385437012, -0.28556016087532043, 0.9628648161888123, -6.195891380310059, 1.062709093093872, 
560, 2276746071, -101.57831573486328, -64.5246353149414, -141.7321319580078, 9.100441932678223, -4.011785984039307, -0.26664793491363525, 1.1986181735992432, -5.803225517272949, 1.0531805753707886, 
561, 2276754404, -101.66912078857422, -64.51366424560547, -141.62159729003906, 9.094511032104492, -4.014394283294678, -0.2860913574695587, 1.3576825857162476, -5.511043071746826, 1.0857361555099487, 
562, 2276762737, -101.7489013671875, -64.51531982421875, -141.52178955078125, 9.092371940612793, -4.037020683288574, -0.26544302701950073, 1.447204351425171, -5.115355014801025, 1.037299633026123, 
563, 2276771070, -101.82708740234375, -64.50557708740234, -141.42291259765625, 9.062992095947266, -4.013344764709473, -0.2495044320821762, 1.6070115566253662, -4.895277976989746, 1.0509008169174194, 
564, 2276779403, -101.8940658569336, -64.50657653808594, -141.3350372314453, 9.063063621520996, -4.012465476989746, -0.26663681864738464, 1.6761956214904785, -4.563111782073975, 1.2189815044403076, 
565, 2276787736, -101.95590209960938, -64.49713897705078, -141.25222778320312, 9.050355911254883, -4.011102199554443, -0.26335716247558594, 1.8278316259384155, -4.076697826385498, 1.1746944189071655, 
566, 2276796069, -102.00675201416016, -64.49994659423828, -141.17962646484375, 9.042145729064941, -4.0026164054870605, -0.29543110728263855, 1.9346176385879517, -3.7787530422210693, 1.1576354503631592, 
567, 2276804402, -102.05430603027344, -64.49166107177734, -141.1095733642578, 9.05808162689209, -4.008577346801758, -0.27538561820983887, 2.1610734462738037, -3.4038119316101074, 1.1731833219528198, 
568, 2276812735, -102.08963012695312, -64.49573516845703, -141.05142211914062, 9.07196044921875, -4.022630214691162, -0.2848520278930664, 2.2251341342926025, -3.051718235015869, 1.1496692895889282, 
569, 2276821068, -102.12492370605469, -64.48844146728516, -140.99298095703125, 9.065116882324219, -4.026456356048584, -0.2898814082145691, 2.3742856979370117, -2.79567813873291, 1.1802012920379639, 
570, 2276829401, -102.14537811279297, -64.49414825439453, -140.9473419189453, 9.057625770568848, -4.032238483428955, -0.2818096876144409, 2.631427049636841, -2.4068031311035156, 1.0856081247329712, 
571, 2276837734, -102.16503143310547, -64.48821258544922, -140.9037628173828, 9.064538955688477, -4.0345659255981445, -0.29748544096946716, 2.6444647312164307, -2.012394905090332, 1.176999568939209, 
572, 2276846067, -102.17280578613281, -64.49433898925781, -140.87098693847656, 9.06181812286377, -4.036966323852539, -0.2807881236076355, 2.745999813079834, -1.7753870487213135, 1.172798991203308, 
573, 2276854400, -102.17820739746094, -64.48837280273438, -140.83990478515625, 9.061514854431152, -4.025088787078857, -0.3078033924102783, 2.997711181640625, -1.3841036558151245, 1.3199528455734253, 
574, 2276862733, -102.16845703125, -64.49515533447266, -140.82235717773438, 9.071978569030762, -4.03322172164917, -0.29978200793266296, 3.184105634689331, -1.0216878652572632, 1.2525105476379395, 
575, 2276871066, -102.16085052490234, -64.4911880493164, -140.802978515625, 9.056375503540039, -4.0222086906433105, -0.31197118759155273, 3.2939653396606445, -0.7430306077003479, 1.2156004905700684, 
576, 2276879399, -102.13722229003906, -64.49883270263672, -140.7972412109375, 9.064788818359375, -4.016464710235596, -0.3004975914955139, 3.5568950176239014, -0.43350809812545776, 1.274846076965332, 
577, 2276887732, -102.11540985107422, -64.49595642089844, -140.79061889648438, 9.067689895629883, -4.026922225952148, -0.3083449900150299, 3.610466957092285, -0.07192476093769073, 1.231673240661621, 
578, 2276896065, -102.07935333251953, -64.50418090820312, -140.79766845703125, 9.074145317077637, -4.013820648193359, -0.3053840696811676, 3.649055004119873, 0.20076437294483185, 1.3372422456741333, 
579, 2276904398, -102.04351043701172, -64.50210571289062, -140.80413818359375, 9.075885772705078, -4.001740455627441, -0.2934609055519104, 3.8795828819274902, 0.605469286441803, 1.2792772054672241, 
580, 2276912731, -101.98930358886719, -64.51165008544922, -140.8270263671875, 9.080323219299316, -3.9836366176605225, -0.2791474759578705, 4.095921039581299, 1.0030791759490967, 1.349024772644043, 
581, 2276921064, -101.94014739990234, -64.51048278808594, -140.84457397460938, 9.071942329406738, -3.994581460952759, -0.2676798701286316, 4.270533561706543, 1.188551664352417, 1.2955679893493652, 
582, 2276929397, -101.87345123291016, -64.52145385742188, -140.8784637451172, 9.080894470214844, -3.996492624282837, -0.2954012155532837, 4.398092269897461, 1.5609573125839233, 1.2842209339141846, 
583, 2276937730, -101.80950164794922, -64.52174377441406, -140.9095458984375, 9.070002555847168, -3.99685001373291, -0.3007790446281433, 4.569579601287842, 1.9084910154342651, 1.2752560377120972, 
584, 2276946063, -101.72686767578125, -64.53375244140625, -140.95814514160156, 9.088547706604004, -4.016594409942627, -0.30665287375450134, 4.70259428024292, 2.3016183376312256, 1.3087080717086792, 
585, 2276954396, -101.64865112304688, -64.53473663330078, -141.00230407714844, 9.081064224243164, -4.007612228393555, -0.269960880279541, 4.874133110046387, 2.5824272632598877, 1.3219505548477173, 
586, 2276962729, -101.55076599121094, -64.54731750488281, -141.06430053710938, 9.080509185791016, -4.003384590148926, -0.26928046345710754, 5.056070804595947, 2.965846538543701, 1.3735889196395874, 
587, 2276971062, -101.45902252197266, -64.54925537109375, -141.12069702148438, 9.06159496307373, -3.9948959350585938, -0.27008581161499023, 5.174997806549072, 3.2195043563842773, 1.3287640810012817, 
588, 2276979395, -101.34709930419922, -64.56310272216797, -141.19578552246094, 9.079096794128418, -4.008195877075195, -0.2903851270675659, 5.309574604034424, 3.626565933227539, 1.3432871103286743, 
589, 2276987728, -101.241943359375, -64.56637573242188, -141.2646484375, 9.078758239746094, -4.017965316772461, -0.29001230001449585, 5.4297308921813965, 3.878763198852539, 1.288575291633606, 
590, 2276996061, -101.1179428100586, -64.58116149902344, -141.3504638671875, 9.073983192443848, -4.015993595123291, -0.3087138831615448, 5.589179515838623, 4.161595821380615, 1.3135491609573364, 
591, 2277004394, -101.00031280517578, -64.58467864990234, -141.4303741455078, 9.064629554748535, -4.021078586578369, -0.2727169692516327, 5.7279582023620605, 4.441073417663574, 1.3551212549209595, 
592, 2277012727, -100.86155700683594, -64.59965515136719, -141.53053283691406, 9.077796936035156, -4.033181667327881, -0.281715452671051, 5.774909019470215, 4.86931848526001, 1.4093979597091675, 
593, 2277021060, -100.72953033447266, -64.60301971435547, -141.6243438720703, 9.080513954162598, -4.004842281341553, -0.2709806263446808, 5.95203161239624, 5.137447834014893, 1.4901341199874878, 
594, 2277029393, -100.57791137695312, -64.61793518066406, -141.73629760742188, 9.06847858428955, -4.025579452514648, -0.2614081799983978, 6.02044677734375, 5.437287330627441, 1.4994572401046753, 
595, 2277037726, -100.43280792236328, -64.62295532226562, -141.84268188476562, 9.054920196533203, -4.033812522888184, -0.2815561294555664, 6.153781890869141, 5.806888103485107, 1.3890984058380127, 
596, 2277046059, -100.26842498779297, -64.63863372802734, -141.9669189453125, 9.07394027709961, -4.023210048675537, -0.23390746116638184, 6.23058557510376, 6.04444694519043, 1.4779413938522339, 
597, 2277054392, -100.1156234741211, -64.6437759399414, -142.08021545410156, 9.085378646850586, -4.015256881713867, -0.2631078064441681, 6.314549446105957, 6.1557159423828125, 1.4148024320602417, 
598, 2277062725, -99.94054412841797, -64.65884399414062, -142.2141571044922, 9.069792747497559, -4.012615203857422, -0.2582628130912781, 6.425203323364258, 6.50330114364624, 1.6006594896316528, 
599, 2277071058, -99.77574920654297, -64.6641845703125, -142.33834838867188, 9.069588661193848, -4.032506465911865, -0.2598726451396942, 6.575328826904297, 6.706216812133789, 1.446307897567749, 
600, 2277079391, -99.59197235107422, -64.68051147460938, -142.47947692871094, 9.055821418762207, -4.035973072052002, -0.2679058313369751, 6.663491725921631, 6.876781463623047, 1.4641352891921997, 
601, 2277087724, -99.42037963867188, -64.68570709228516, -142.61033630371094, 9.077442169189453, -4.015376567840576, -0.26229986548423767, 6.663568496704102, 7.035871505737305, 1.488289475440979, 
602, 2277096057, -99.22693634033203, -64.7021255493164, -142.7617645263672, 9.087408065795898, -4.014275074005127, -0.27988675236701965, 6.744535446166992, 7.355793476104736, 1.4801441431045532, 
603, 2277104390, -99.04553985595703, -64.70743560791016, -142.9010772705078, 9.086374282836914, -4.031506061553955, -0.2520301938056946, 6.913051605224609, 7.461631774902344, 1.5030946731567383, 
604, 2277112723, -98.84586334228516, -64.7238540649414, -143.05780029296875, 9.081729888916016, -4.025116443634033, -0.27470189332962036, 6.936668395996094, 7.590317726135254, 1.4621376991271973, 
605, 2277121056, -98.657470703125, -64.72884368896484, -143.2027587890625, 9.073251724243164, -4.01713752746582, -0.2797448933124542, 7.133359909057617, 7.737445831298828, 1.5392365455627441, 
