sep=,
PacketCounter,SampleTimeFine,Euler_X,Euler_Y,Euler_Z,Acc_X,Acc_Y,Acc_Z,Gyr_X,Gyr_Y,Gyr_Z,
0, 625280435, -34.119346618652344, -85.83247375488281, 136.81947326660156, 0, 0, 0, 0, 0, 0, 
1, 625288768, -34.28871536254883, -85.83576202392578, 137.0157470703125, 9.864588737487793, -0.41317829489707947, 0.5971240401268005, 3.1720798015594482, -1.288549780845642, 1.1948145627975464, 
2, 625297101, -34.68705368041992, -85.83454132080078, 137.4764862060547, 9.848165512084961, -0.4091516137123108, 0.6027709245681763, 3.001617193222046, -1.2032543420791626, 1.1718641519546509, 
3, 625305434, -34.84819030761719, -85.83642578125, 137.66441345214844, 9.844563484191895, -0.3958590626716614, 0.608608067035675, 3.1492834091186523, -1.1229538917541504, 1.214255690574646, 
4, 625313767, -34.95357894897461, -85.82683563232422, 137.800537109375, 9.85738754272461, -0.4029049575328827, 0.6054409146308899, 3.1543548107147217, -0.9965730905532837, 1.3008573055267334, 
5, 625322100, -35.11037826538086, -85.82777404785156, 137.98394775390625, 9.866560935974121, -0.39717206358909607, 0.5986192226409912, 3.139524221420288, -1.0212653875350952, 1.2402797937393188, 
6, 625330433, -35.11206817626953, -85.82318115234375, 138.03648376464844, 9.85743522644043, -0.3986000120639801, 0.6065118908882141, 3.162397623062134, -1.0361214876174927, 1.2042661905288696, 
7, 625338766, -35.26095962524414, -85.82233428955078, 138.21188354492188, 9.850149154663086, -0.3982161581516266, 0.6163352727890015, 3.123412847518921, -0.8079498410224915, 1.3053144216537476, 
8, 625347099, -35.18547821044922, -85.81526184082031, 138.17648315429688, 9.861043930053711, -0.4200550317764282, 0.5934627652168274, 3.1348111629486084, -0.8131495714187622, 1.2102599143981934, 
9, 625355432, -35.33034896850586, -85.81493377685547, 138.3474884033203, 9.886862754821777, -0.3702113926410675, 0.6158999800682068, 3.0889618396759033, -0.8162745237350464, 1.2561863660812378, 
10, 625363765, -35.2696647644043, -85.81147003173828, 138.3241729736328, 9.875781059265137, -0.4010787308216095, 0.6059414744377136, 3.085631847381592, -0.8571547865867615, 1.277651071548462, 
11, 625372098, -35.408138275146484, -85.81161499023438, 138.48890686035156, 9.857501029968262, -0.39516544342041016, 0.6103677153587341, 3.0937001705169678, -0.844450056552887, 1.1710443496704102, 
12, 625380431, -35.339630126953125, -85.8069839477539, 138.45858764648438, 9.857526779174805, -0.37470465898513794, 0.5965371131896973, 3.2073121070861816, -0.611591100692749, 1.2339658737182617, 
13, 625388764, -35.464561462402344, -85.80614471435547, 138.6102752685547, 9.870312690734863, -0.38896214962005615, 0.6031748056411743, 3.1611809730529785, -0.6708369255065918, 1.1588906049728394, 
14, 625397097, -35.39777755737305, -85.80497741699219, 138.55953979492188, 9.831877708435059, -0.3775201439857483, 0.5932557582855225, 3.18424654006958, -0.6492440700531006, 1.2324930429458618, 
15, 625405430, -35.518943786621094, -85.80278015136719, 138.70704650878906, 9.859310150146484, -0.40633371472358704, 0.6220252513885498, 3.110656976699829, -0.5328017473220825, 1.210772156715393, 
16, 625413763, -35.45521926879883, -85.80072784423828, 138.67828369140625, 9.882991790771484, -0.39006665349006653, 0.5663021802902222, 3.1910598278045654, -0.5099282264709473, 1.2286252975463867, 
17, 625422096, -35.57720184326172, -85.7977523803711, 138.82647705078125, 9.85006332397461, -0.394888699054718, 0.5933693647384644, 3.089576482772827, -0.46858689188957214, 1.2662782669067383, 
18, 625430429, -35.556983947753906, -85.7981185913086, 138.8202667236328, 9.850030899047852, -0.4000759422779083, 0.5928892493247986, 3.153381586074829, -0.5309318900108337, 1.276293396949768, 
19, 625438762, -35.67660903930664, -85.79508972167969, 138.96682739257812, 9.857288360595703, -0.4089617431163788, 0.5924010276794434, 3.1797385215759277, -0.4655643105506897, 1.2513450384140015, 
20, 625447095, -35.668304443359375, -85.79481506347656, 138.98046875, 9.864411354064941, -0.41828176379203796, 0.551712155342102, 3.117367744445801, -0.44294700026512146, 1.16935396194458, 
21, 625455428, -35.78473663330078, -85.79169464111328, 139.12376403808594, 9.846112251281738, -0.41947588324546814, 0.5659953355789185, 3.171593189239502, -0.4311388432979584, 1.2446086406707764, 
22, 625463761, -35.84025192260742, -85.79202270507812, 139.1935577392578, 9.840770721435547, -0.3861279785633087, 0.5724738240242004, 3.1831445693969727, -0.46500077843666077, 1.3431463241577148, 
23, 625472094, -35.953651428222656, -85.78968811035156, 139.33383178710938, 9.860860824584961, -0.3986445367336273, 0.5830056667327881, 3.1828250885009766, -0.4939705431461334, 1.1679580211639404, 
24, 625480427, -36.0040397644043, -85.79085540771484, 139.401123046875, 9.855270385742188, -0.3967716097831726, 0.5568457245826721, 3.122401237487793, -0.45718854665756226, 1.2530485391616821, 
25, 625488760, -36.114383697509766, -85.78694915771484, 139.5374755859375, 9.879046440124512, -0.4109797179698944, 0.5785238146781921, 3.07028865814209, -0.3308846950531006, 1.2457355260849, 
26, 625497093, -36.17570877075195, -85.78889465332031, 139.6277313232422, 9.862813949584961, -0.373625785112381, 0.5996164679527283, 3.138704299926758, -0.4770907461643219, 1.2334917783737183, 
27, 625505426, -36.29008483886719, -85.78536987304688, 139.76881408691406, 9.866284370422363, -0.39372116327285767, 0.5810956954956055, 3.1570310592651367, -0.39663639664649963, 1.2509479522705078, 
28, 625513759, -36.333370208740234, -85.78667449951172, 139.83523559570312, 9.88660717010498, -0.3694566488265991, 0.5985671281814575, 3.1258206367492676, -0.3837524950504303, 1.2115663290023804, 
29, 625522092, -36.447776794433594, -85.782958984375, 139.9759521484375, 9.85893726348877, -0.38749295473098755, 0.5839055180549622, 3.119365692138672, -0.3800640404224396, 1.2639986276626587, 
30, 625530425, -36.48668670654297, -85.78434753417969, 140.0298309326172, 9.871627807617188, -0.38770249485969543, 0.555968165397644, 3.132352352142334, -0.4097765386104584, 1.2412786483764648, 
31, 625538758, -36.60106658935547, -85.78118896484375, 140.17105102539062, 9.879012107849121, -0.37992390990257263, 0.5663583278656006, 3.1749227046966553, -0.4296531677246094, 1.2347724437713623, 
32, 625547091, -36.646148681640625, -85.78304290771484, 140.25335693359375, 9.866120338439941, -0.39409613609313965, 0.5716884136199951, 3.181633949279785, -0.40475618839263916, 1.2739112377166748, 
33, 625555424, -36.763763427734375, -85.77965545654297, 140.39683532714844, 9.85684871673584, -0.4154948592185974, 0.588121235370636, 3.0602223873138428, -0.43400755524635315, 1.2580046653747559, 
34, 625563757, -36.823177337646484, -85.78174591064453, 140.49087524414062, 9.842059135437012, -0.40670377016067505, 0.5453763604164124, 3.0566365718841553, -0.5239904522895813, 1.276856780052185, 
35, 625572090, -36.952392578125, -85.78007507324219, 140.64657592773438, 9.856672286987305, -0.41368427872657776, 0.5520913004875183, 3.129854917526245, -0.6624354124069214, 1.2238225936889648, 
36, 625580423, -37.04033660888672, -85.7824935913086, 140.75991821289062, 9.853215217590332, -0.38236287236213684, 0.547090470790863, 3.099079132080078, -0.6396129727363586, 1.374549388885498, 
37, 625588756, -37.1836051940918, -85.78133392333984, 140.92947387695312, 9.8401517868042, -0.41501569747924805, 0.5487297773361206, 3.1049447059631348, -0.7864081859588623, 1.2824662923812866, 
38, 625597089, -37.28076934814453, -85.78546142578125, 141.04736328125, 9.862190246582031, -0.3915942907333374, 0.5234081149101257, 3.15742826461792, -0.7913005352020264, 1.3069791793823242, 
39, 625605422, -37.42963409423828, -85.78462219238281, 141.22216796875, 9.831070899963379, -0.3964516520500183, 0.53357994556427, 3.0571484565734863, -0.8534150719642639, 1.288152813911438, 
40, 625613755, -37.536102294921875, -85.79034423828125, 141.33082580566406, 9.81816291809082, -0.4000184237957001, 0.5179616808891296, 3.1108102798461914, -0.9247249960899353, 1.2280871868133545, 
41, 625622088, -37.68745803833008, -85.79025268554688, 141.50881958007812, 9.858491897583008, -0.4034736156463623, 0.5276525020599365, 3.1403181552886963, -0.9442688822746277, 1.2528306245803833, 
42, 625630421, -37.81932067871094, -85.79681396484375, 141.64422607421875, 9.84755802154541, -0.41709890961647034, 0.5578709244728088, 3.1596567630767822, -1.0714690685272217, 1.3246017694473267, 
43, 625638754, -37.97880935668945, -85.79681396484375, 141.8302459716797, 9.851275444030762, -0.4026212990283966, 0.5415295958518982, 3.136936902999878, -1.0011835098266602, 1.2960418462753296, 
44, 625647087, -38.10279846191406, -85.80362701416016, 141.9270477294922, 9.856910705566406, -0.3878498375415802, 0.5361710786819458, 3.1003856658935547, -1.05937922000885, 1.206597089767456, 
45, 625655420, -38.270042419433594, -85.80436706542969, 142.12088012695312, 9.860485076904297, -0.40042951703071594, 0.533207893371582, 3.1266400814056396, -1.1159355640411377, 1.2907911539077759, 
46, 625663753, -38.409828186035156, -85.81240844726562, 142.2566680908203, 9.86962604522705, -0.39863309264183044, 0.5205858945846558, 3.1273319721221924, -1.2710039615631104, 1.207314133644104, 
47, 625672086, -38.58686447143555, -85.81507110595703, 142.46084594726562, 9.871358871459961, -0.4217956066131592, 0.5322524905204773, 3.1876015663146973, -1.3581691980361938, 1.2065200805664062, 
48, 625680419, -38.729248046875, -85.82252502441406, 142.5955810546875, 9.847647666931152, -0.3999170660972595, 0.5045182108879089, 3.175307273864746, -1.2085052728652954, 1.2441474199295044, 
49, 625688752, -38.90953063964844, -85.82542419433594, 142.8022918701172, 9.862592697143555, -0.38112586736679077, 0.5150564312934875, 3.102050304412842, -1.4072203636169434, 1.1877704858779907, 
50, 625697085, -39.06303405761719, -85.83473205566406, 142.9847869873047, 9.855021476745605, -0.4011712670326233, 0.4991041123867035, 3.1577870845794678, -1.4042747020721436, 1.1826475858688354, 
51, 625705418, -39.25960159301758, -85.83952331542969, 143.20762634277344, 9.860682487487793, -0.3951564431190491, 0.5042250752449036, 3.0907673835754395, -1.6716488599777222, 1.145263671875, 
52, 625713751, -39.43155288696289, -85.85008239746094, 143.38031005859375, 9.853412628173828, -0.4176860749721527, 0.533787727355957, 3.092982769012451, -1.5923857688903809, 1.1901270151138306, 
53, 625722084, -39.646385192871094, -85.85466766357422, 143.62115478515625, 9.839069366455078, -0.40225520730018616, 0.5422745943069458, 3.051410436630249, -1.756828784942627, 1.2613087892532349, 
54, 625730417, -39.83842849731445, -85.8662109375, 143.84471130371094, 9.842565536499023, -0.410268634557724, 0.5139575600624084, 3.1114377975463867, -1.8415096998214722, 1.204867959022522, 
55, 625738750, -40.062496185302734, -85.87303161621094, 144.09463500976562, 9.863027572631836, -0.3917001485824585, 0.5143119096755981, 3.0282938480377197, -2.0092315673828125, 1.1369134187698364, 
56, 625747083, -40.27980422973633, -85.88581848144531, 144.3314971923828, 9.857208251953125, -0.4137752652168274, 0.4903367757797241, 3.193800210952759, -2.111868143081665, 1.2475284337997437, 
57, 625755416, -40.52790069580078, -85.89119720458984, 144.60606384277344, 9.859627723693848, -0.39792701601982117, 0.525445282459259, 3.094660520553589, -2.044156789779663, 1.3634201288223267, 
58, 625763749, -40.74765396118164, -85.90485382080078, 144.862060546875, 9.852270126342773, -0.4050462543964386, 0.5173417329788208, 3.1143319606781006, -2.192911148071289, 1.170365571975708, 
59, 625772082, -41.001747131347656, -85.91169738769531, 145.14300537109375, 9.86694049835205, -0.39808884263038635, 0.4957292675971985, 3.1540210247039795, -2.209713935852051, 1.2704017162322998, 
60, 625780415, -41.2290153503418, -85.92475128173828, 145.3742218017578, 9.843790054321289, -0.38883858919143677, 0.5402603149414062, 3.1376283168792725, -2.1888129711151123, 1.2373851537704468, 
61, 625788748, -41.4942741394043, -85.93326568603516, 145.66616821289062, 9.850900650024414, -0.39315006136894226, 0.5060833096504211, 3.113243579864502, -2.4040238857269287, 1.2013715505599976, 
62, 625797081, -41.734771728515625, -85.94768524169922, 145.92051696777344, 9.8544340133667, -0.39887866377830505, 0.48454082012176514, 3.06350040435791, -2.455303430557251, 1.1499381065368652, 
63, 625805414, -42.00727462768555, -85.95659637451172, 146.21865844726562, 9.84782600402832, -0.3914044201374054, 0.5304251313209534, 2.998107671737671, -2.4658823013305664, 1.1848760843276978, 
64, 625813747, -42.2782096862793, -85.97221374511719, 146.48716735839844, 9.884361267089844, -0.39215585589408875, 0.5046266913414001, 3.0032308101654053, -2.7357795238494873, 1.2267556190490723, 
65, 625822080, -42.566078186035156, -85.98165893554688, 146.801025390625, 9.866726875305176, -0.38133737444877625, 0.5373402833938599, 3.039987087249756, -2.603610038757324, 1.2031902074813843, 
66, 625830413, -42.834754943847656, -85.99659729003906, 147.0640869140625, 9.872430801391602, -0.39859113097190857, 0.5580511093139648, 3.062425374984741, -2.714827299118042, 1.2261404991149902, 
67, 625838746, -43.13258743286133, -86.00688171386719, 147.3876495361328, 9.856191635131836, -0.3978404402732849, 0.5599023699760437, 3.0077261924743652, -2.7386996746063232, 1.1514623165130615, 
68, 625847079, -43.39176940917969, -86.02113342285156, 147.67501831054688, 9.8694429397583, -0.3880716860294342, 0.56669682264328, 3.1296370029449463, -2.6800432205200195, 1.17760169506073, 
69, 625855412, -43.699462890625, -86.03099060058594, 148.0091552734375, 9.854805946350098, -0.39677631855010986, 0.5597661733627319, 3.08524751663208, -2.7461020946502686, 1.22982919216156, 
70, 625863745, -43.97364044189453, -86.0464096069336, 148.31271362304688, 9.857502937316895, -0.3752385079860687, 0.5862602591514587, 3.0016682147979736, -2.9109296798706055, 1.1446360349655151, 
71, 625872078, -44.28825378417969, -86.05662536621094, 148.65321350097656, 9.870012283325195, -0.40813955664634705, 0.5776957869529724, 3.0288448333740234, -2.820152997970581, 1.1920738220214844, 
72, 625880411, -44.546390533447266, -86.0704574584961, 148.97970581054688, 9.851825714111328, -0.4182897210121155, 0.579858124256134, 2.987874984741211, -2.7683866024017334, 1.135735273361206, 
73, 625888744, -44.85688781738281, -86.08018493652344, 149.31602478027344, 9.863006591796875, -0.4002799689769745, 0.5587626099586487, 3.0128231048583984, -2.753223180770874, 1.1697509288787842, 
74, 625897077, -45.10817337036133, -86.09334564208984, 149.5529022216797, 9.832201957702637, -0.40085944533348083, 0.5664317011833191, 3.040576457977295, -2.7247912883758545, 1.1198160648345947, 
75, 625905410, -45.42687225341797, -86.10238647460938, 149.89849853515625, 9.849297523498535, -0.41552016139030457, 0.6069923043251038, 3.1492960453033447, -2.7646596431732178, 1.2263327836990356, 
76, 625913743, -45.681190490722656, -86.11370086669922, 150.15992736816406, 9.84617805480957, -0.3789971172809601, 0.5908427834510803, 3.0257458686828613, -2.6549665927886963, 1.2597723007202148, 
77, 625922076, -46.000858306884766, -86.12232971191406, 150.5061798095703, 9.834814071655273, -0.3939412832260132, 0.5659322142601013, 3.110337018966675, -2.7298245429992676, 1.2358614206314087, 
78, 625930409, -46.26426696777344, -86.13375091552734, 150.8087158203125, 9.855122566223145, -0.40281909704208374, 0.569437563419342, 3.064077377319336, -2.8012750148773193, 1.2539705038070679, 
79, 625938742, -46.57911682128906, -86.14157104492188, 151.14971923828125, 9.864872932434082, -0.40532636642456055, 0.5930032134056091, 3.063744306564331, -2.624229669570923, 1.2523057460784912, 
80, 625947075, -46.82656478881836, -86.1517333984375, 151.40333557128906, 9.865065574645996, -0.40853214263916016, 0.5931494235992432, 3.0929062366485596, -2.6590652465820312, 1.2445060014724731, 
81, 625955408, -47.143394470214844, -86.15967559814453, 151.74713134765625, 9.868696212768555, -0.4051586091518402, 0.5746510028839111, 3.160066843032837, -2.6534557342529297, 1.2225290536880493, 
82, 625963741, -47.368778228759766, -86.16896057128906, 151.99667358398438, 9.893264770507812, -0.39154016971588135, 0.5919524431228638, 3.0916635990142822, -2.52292537689209, 1.161554217338562, 
83, 625972074, -47.66136169433594, -86.17581939697266, 152.31532287597656, 9.87496566772461, -0.40357428789138794, 0.5910870432853699, 3.0596327781677246, -2.4179322719573975, 1.153191089630127, 
84, 625980407, -47.87321853637695, -86.1836166381836, 152.54505920410156, 9.879624366760254, -0.39086803793907166, 0.6220054626464844, 3.0769481658935547, -2.3710074424743652, 1.2094913721084595, 
85, 625988740, -48.16010665893555, -86.18936920166016, 152.8575439453125, 9.868638038635254, -0.39068925380706787, 0.6097363829612732, 3.027884006500244, -2.312350273132324, 1.1727219820022583, 
86, 625997073, -48.34857177734375, -86.19605255126953, 153.0894012451172, 9.879565238952637, -0.3803035616874695, 0.5858224034309387, 3.123873472213745, -2.209714412689209, 1.1779088973999023, 
87, 626005406, -48.62632751464844, -86.19996643066406, 153.39332580566406, 9.883539199829102, -0.4186190068721771, 0.6246308088302612, 3.0991554260253906, -2.1258785724639893, 1.258414387702942, 
88, 626013739, -48.802310943603516, -86.2060546875, 153.54238891601562, 9.865849494934082, -0.38868463039398193, 0.6207934617996216, 3.099923849105835, -2.127671718597412, 1.1731958389282227, 
89, 626022072, -49.05575942993164, -86.2093505859375, 153.82186889648438, 9.84867000579834, -0.41807058453559875, 0.6011995673179626, 3.0918047428131104, -1.9307241439819336, 1.1789336204528809, 
90, 626030405, -49.211517333984375, -86.21307373046875, 153.9734344482422, 9.874085426330566, -0.4117993414402008, 0.5757539868354797, 3.0469024181365967, -1.8929173946380615, 1.2425591945648193, 
91, 626038738, -49.44577407836914, -86.21540069580078, 154.23377990722656, 9.867021560668945, -0.38770991563796997, 0.5618300437927246, 3.114140033721924, -1.7614396810531616, 1.1308300495147705, 
92, 626047071, -49.584442138671875, -86.21866607666016, 154.4098663330078, 9.854684829711914, -0.3986854553222656, 0.5876331925392151, 3.0276920795440674, -1.7839545011520386, 1.1928932666778564, 
93, 626055404, -49.842342376708984, -86.22218322753906, 154.6939239501953, 9.875738143920898, -0.40456274151802063, 0.5386091470718384, 3.102574586868286, -1.987267017364502, 1.1506680250167847, 
94, 626063737, -49.9824104309082, -86.22477722167969, 154.81057739257812, 9.866692543029785, -0.4041307270526886, 0.5361506938934326, 3.0713002681732178, -1.7664216756820679, 1.262551188468933, 
95, 626072070, -50.235687255859375, -86.22686004638672, 155.0912628173828, 9.88741683959961, -0.38192787766456604, 0.5378397703170776, 3.2605252265930176, -1.8634867668151855, 1.2495520114898682, 
96, 626080403, -50.385013580322266, -86.23007202148438, 155.3070526123047, 9.853570938110352, -0.38835465908050537, 0.49595528841018677, 3.2305564880371094, -1.9077224731445312, 1.2394343614578247, 
97, 626088736, -50.62802505493164, -86.23308563232422, 155.5760498046875, 9.86019515991211, -0.40921732783317566, 0.47387200593948364, 3.090050220489502, -1.8621164560317993, 1.100541114807129, 
98, 626097069, -50.782379150390625, -86.23646545410156, 155.70484924316406, 9.851459503173828, -0.4044453501701355, 0.4823716878890991, 3.2186975479125977, -1.9503445625305176, 1.2356178760528564, 
99, 626105402, -51.056827545166016, -86.23902130126953, 156.00570678710938, 9.867074966430664, -0.3905470371246338, 0.4254418909549713, 3.146388292312622, -2.0305938720703125, 1.2842592000961304, 
100, 626113735, -51.24406814575195, -86.24422454833984, 156.21435546875, 9.849599838256836, -0.3974281847476959, 0.3811233341693878, 3.174833059310913, -2.2633378505706787, 1.2320702075958252, 
101, 626122068, -51.54100036621094, -86.24850463867188, 156.5380859375, 9.85378360748291, -0.3947271406650543, 0.3154062032699585, 3.2097067832946777, -2.332048177719116, 1.1824426651000977, 
102, 626130401, -51.76498031616211, -86.25597381591797, 156.78152465820312, 9.853052139282227, -0.39258238673210144, 0.19834454357624054, 3.2269070148468018, -2.6060690879821777, 1.183941125869751, 
103, 626138734, -52.153297424316406, -86.2640380859375, 157.19625854492188, 9.85984992980957, -0.3991914987564087, 0.09880442917346954, 3.103126049041748, -3.1488094329833984, 1.2757552862167358, 
104, 626147067, -52.49930191040039, -86.27668762207031, 157.56324768066406, 9.852048873901367, -0.3892763555049896, -0.00855632871389389, 3.201331377029419, -3.629742383956909, 1.2306487560272217, 
105, 626155400, -53.006065368652344, -86.29118347167969, 158.09698486328125, 9.851154327392578, -0.4155389666557312, -0.17428232729434967, 3.155916690826416, -4.34921932220459, 1.1687389612197876, 
106, 626163733, -53.53709411621094, -86.31230926513672, 158.61968994140625, 9.807849884033203, -0.40785303711891174, -0.29789209365844727, 3.237344980239868, -5.168569087982178, 1.2275750637054443, 
107, 626172066, -54.23612594604492, -86.33509826660156, 159.3473358154297, 9.763230323791504, -0.3777175545692444, -0.34286126494407654, 3.298754930496216, -6.132880210876465, 1.1265395879745483, 
108, 626180399, -55.02443313598633, -86.36686706542969, 160.12730407714844, 9.798712730407715, -0.3920963406562805, -0.37063461542129517, 3.227496385574341, -7.2436933517456055, 1.1460834741592407, 
109, 626188732, -55.97990417480469, -86.39814758300781, 161.11041259765625, 9.797804832458496, -0.41762426495552063, -0.3785894513130188, 3.121081829071045, -8.254085540771484, 1.1687391996383667, 
110, 626197065, -57.04552459716797, -86.43865966796875, 162.1873016357422, 9.812106132507324, -0.3791481554508209, -0.3512595295906067, 3.045814037322998, -9.198750495910645, 1.143649935722351, 
111, 626205398, -58.247859954833984, -86.47552490234375, 163.41574096679688, 9.831644058227539, -0.37907782196998596, -0.4261757731437683, 2.9143753051757812, -10.073004722595215, 1.1572128534317017, 
112, 626213731, -59.59959030151367, -86.52131652832031, 164.76634216308594, 9.842421531677246, -0.36860391497612, -0.3777548670768738, 2.9471099376678467, -10.95838451385498, 1.188385248184204, 
113, 626222064, -61.07204818725586, -86.56202697753906, 166.26463317871094, 9.842960357666016, -0.37389734387397766, -0.3554266095161438, 2.825916290283203, -11.850784301757812, 1.1438549757003784, 
114, 626230397, -62.74625778198242, -86.61331939697266, 167.9313507080078, 9.886954307556152, -0.36204132437705994, -0.41193899512290955, 2.746819496154785, -12.8914794921875, 0.9716248512268066, 
115, 626238730, -64.54623413085938, -86.65742492675781, 169.75765991210938, 9.905414581298828, -0.3367045223712921, -0.4681800901889801, 2.8427321910858154, -13.870929718017578, 1.0096237659454346, 
116, 626247063, -66.58551025390625, -86.70984649658203, 171.79351806640625, 9.910481452941895, -0.3518267869949341, -0.4660445749759674, 2.8124308586120605, -14.752699851989746, 0.9163365960121155, 
117, 626255396, -68.72512817382812, -86.75237274169922, 173.96006774902344, 9.879055976867676, -0.3743216395378113, -0.41375574469566345, 2.8730592727661133, -15.651732444763184, 0.9481750726699829, 
118, 626263729, -71.1664047241211, -86.80133056640625, 176.40957641601562, 9.889181137084961, -0.36470478773117065, -0.397419273853302, 2.904667377471924, -16.590904235839844, 0.944256067276001, 
119, 626272062, -73.67103576660156, -86.8395004272461, 178.94056701660156, 9.853839874267578, -0.3951735198497772, -0.39644527435302734, 2.7396860122680664, -17.43622589111328, 0.7668775320053101, 
120, 626280395, -76.5125961303711, -86.87952423095703, -178.21401977539062, 9.827322006225586, -0.4082641899585724, -0.4108583629131317, 2.8452045917510986, -18.2833309173584, 0.9246228933334351, 
121, 626288728, -79.35762786865234, -86.9059829711914, -175.34246826171875, 9.827715873718262, -0.4026518762111664, -0.4101805090904236, 2.754504442214966, -18.925710678100586, 0.824061393737793, 
122, 626297061, -82.57199096679688, -86.93171691894531, -172.12155151367188, 9.855502128601074, -0.44072863459587097, -0.3950088322162628, 2.554598569869995, -19.83705711364746, 0.9788868427276611, 
123, 626305394, -85.7397232055664, -86.9422607421875, -168.92617797851562, 9.852018356323242, -0.4066931903362274, -0.381563276052475, 2.7968575954437256, -20.499361038208008, 0.8896466493606567, 
124, 626313727, -89.26392364501953, -86.94937133789062, -165.3966522216797, 9.911766052246094, -0.4016510546207428, -0.40633463859558105, 2.693402051925659, -21.365509033203125, 0.8362411260604858, 
125, 626322060, -92.68389129638672, -86.9375228881836, -161.94992065429688, 9.899694442749023, -0.40092021226882935, -0.43334081768989563, 2.652700901031494, -22.062393188476562, 1.1011179685592651, 
126, 626330393, -96.38336944580078, -86.9195556640625, -158.2471923828125, 9.937028884887695, -0.40307512879371643, -0.46056631207466125, 2.677008867263794, -22.64289093017578, 0.9996855854988098, 
127, 626338726, -99.906005859375, -86.8844223022461, -154.6972198486328, 9.958470344543457, -0.37059134244918823, -0.4384872019290924, 2.7193236351013184, -23.37322998046875, 0.9480729699134827, 
128, 626347059, -103.65645599365234, -86.8395004272461, -150.93942260742188, 9.949331283569336, -0.3566242456436157, -0.4306650757789612, 2.7805161476135254, -23.942970275878906, 0.9600091576576233, 
129, 626355392, -107.13269805908203, -86.77803039550781, -147.434814453125, 9.962421417236328, -0.36279356479644775, -0.41680094599723816, 2.8408892154693604, -24.50499725341797, 0.9045031666755676, 
130, 626363725, -110.77410125732422, -86.70580291748047, -143.78334045410156, 9.962719917297363, -0.3560774624347687, -0.40908578038215637, 2.8322315216064453, -25.01443862915039, 0.8338077068328857, 
131, 626372058, -114.0499496459961, -86.6188735961914, -140.47918701171875, 9.978758811950684, -0.3724369406700134, -0.38517433404922485, 2.8077187538146973, -25.295581817626953, 0.8751236200332642, 
132, 626380391, -117.43670654296875, -86.52098846435547, -137.0869903564453, 9.990728378295898, -0.38182225823402405, -0.37124505639076233, 2.667454957962036, -25.71352767944336, 0.7041996717453003, 
133, 626388724, -120.43960571289062, -86.41100311279297, -134.05703735351562, 9.975610733032227, -0.3789985477924347, -0.37806668877601624, 2.6332600116729736, -25.973743438720703, 0.7389582395553589, 
134, 626397057, -123.47997283935547, -86.28954315185547, -131.0135498046875, 9.96340560913086, -0.4062871038913727, -0.3670797348022461, 2.4870283603668213, -26.153301239013672, 0.7455155849456787, 
135, 626405390, -126.15425109863281, -86.15866088867188, -128.31346130371094, 9.975607872009277, -0.3939438462257385, -0.41821858286857605, 2.4483253955841064, -26.46525764465332, 0.7627283334732056, 
136, 626413723, -128.84678649902344, -86.0162124633789, -125.6168212890625, 10.000411987304688, -0.41582614183425903, -0.42692995071411133, 2.4923176765441895, -26.68558120727539, 0.8024945259094238, 
137, 626422056, -131.1910400390625, -85.86714935302734, -123.2463150024414, 10.001717567443848, -0.42080411314964294, -0.4363199472427368, 2.5353503227233887, -26.884811401367188, 0.7874078154563904, 
138, 626430389, -133.54782104492188, -85.70814514160156, -120.88703155517578, 9.992894172668457, -0.39865872263908386, -0.4279821217060089, 2.51383376121521, -27.042299270629883, 0.7252163887023926, 
139, 626438722, -135.5977325439453, -85.54438781738281, -118.80980682373047, 9.974553108215332, -0.39802926778793335, -0.3879433274269104, 2.572042226791382, -27.33002281188965, 0.7334000468254089, 
140, 626447055, -137.6546173095703, -85.36984252929688, -116.74620056152344, 9.974076271057129, -0.36505943536758423, -0.4095693528652191, 2.5836710929870605, -27.562088012695312, 0.7753049731254578, 
141, 626455388, -139.4202117919922, -85.19258117675781, -114.95242309570312, 9.98657512664795, -0.39492979645729065, -0.4327889084815979, 2.724626302719116, -27.634984970092773, 0.8600369691848755, 
142, 626463721, -141.17796325683594, -85.00785827636719, -113.19115447998047, 9.994482040405273, -0.3987346887588501, -0.3960947096347809, 2.5891528129577637, -27.560577392578125, 0.8849083185195923, 
143, 626472054, -142.6820068359375, -84.82328033447266, -111.65921020507812, 9.997269630432129, -0.41786831617355347, -0.37057384848594666, 2.718299388885498, -27.4459228515625, 0.8765323758125305, 
144, 626480387, -144.18373107910156, -84.63294219970703, -110.1301498413086, 9.995041847229004, -0.3987399935722351, -0.3781769275665283, 2.6783926486968994, -27.32769203186035, 0.8726134896278381, 
145, 626488720, -145.4667510986328, -84.44434356689453, -108.81957244873047, 10.009020805358887, -0.3936938941478729, -0.39987897872924805, 2.692711114883423, -27.077619552612305, 0.8474090695381165, 
146, 626497053, -146.74546813964844, -84.25239562988281, -107.5141372680664, 10.01169204711914, -0.377877801656723, -0.3479602634906769, 2.6291110515594482, -26.776321411132812, 0.8522502183914185, 
147, 626505386, -147.84246826171875, -84.06172180175781, -106.39077758789062, 10.022408485412598, -0.40626591444015503, -0.34952157735824585, 2.5446603298187256, -26.629112243652344, 0.8655182719230652, 
148, 626513719, -148.9405517578125, -83.86920928955078, -105.26687622070312, 10.025330543518066, -0.37673282623291016, -0.36473381519317627, 2.530982494354248, -26.2960262298584, 0.8524293899536133, 
149, 626522052, -149.87533569335938, -83.68090057373047, -104.30657196044922, 10.024271965026855, -0.37014156579971313, -0.3418300151824951, 2.465153932571411, -25.77129364013672, 0.7972564101219177, 
150, 626530385, -150.81033325195312, -83.49175262451172, -103.3460922241211, 10.01435375213623, -0.3675975501537323, -0.3518640995025635, 2.5178675651550293, -25.43400001525879, 0.8757638931274414, 
151, 626538718, -151.60951232910156, -83.30619812011719, -102.52032470703125, 10.026497840881348, -0.366331547498703, -0.37413671612739563, 2.588101863861084, -24.9719181060791, 0.8067848086357117, 
152, 626547051, -152.41351318359375, -83.12225341796875, -101.69107055664062, 10.000197410583496, -0.37970781326293945, -0.37901148200035095, 2.545774459838867, -24.47808837890625, 0.8067206740379333, 
153, 626555384, -153.0997314453125, -82.94097900390625, -100.97823333740234, 9.992809295654297, -0.3860282003879547, -0.3828991949558258, 2.633131742477417, -24.056798934936523, 0.7931835055351257, 
154, 626563717, -153.791015625, -82.76296997070312, -100.26182556152344, 9.9754638671875, -0.3956608474254608, -0.3579646050930023, 2.559286117553711, -23.515132904052734, 0.8236901760101318, 
155, 626572050, -154.37945556640625, -82.58714294433594, -99.64678192138672, 9.97939395904541, -0.39965012669563293, -0.3514309227466583, 2.656209945678711, -23.05866241455078, 0.822409451007843, 
156, 626580383, -154.9750213623047, -82.41646575927734, -99.0248794555664, 9.984024047851562, -0.42198148369789124, -0.36893516778945923, 2.6950669288635254, -22.486156463623047, 0.8202834129333496, 
157, 626588716, -155.4788818359375, -82.24787139892578, -98.49441528320312, 9.975786209106445, -0.4164620339870453, -0.35902512073516846, 2.6956560611724854, -21.89280128479004, 0.830554723739624, 
158, 626597049, -155.97950744628906, -82.08624267578125, -97.9676284790039, 9.956721305847168, -0.4206094741821289, -0.4052595794200897, 2.7204763889312744, -21.202064514160156, 0.9831901788711548, 
159, 626605382, -156.39637756347656, -81.92747497558594, -97.52497863769531, 9.972718238830566, -0.413215696811676, -0.3850032687187195, 2.656747817993164, -20.374902725219727, 1.0006332397460938, 
160, 626613715, -156.8236083984375, -81.77691650390625, -97.07137298583984, 9.968611717224121, -0.37201711535453796, -0.3585062623023987, 2.7919399738311768, -19.78272819519043, 0.9547069072723389, 
161, 626622048, -157.1715087890625, -81.62767028808594, -96.69647979736328, 9.969184875488281, -0.38031095266342163, -0.37702277302742004, 2.8369693756103516, -18.991270065307617, 1.0945605039596558, 
162, 626630381, -157.5305633544922, -81.48904418945312, -96.31143951416016, 9.97375774383545, -0.3640255928039551, -0.35947510600090027, 2.7734458446502686, -18.28833770751953, 1.0288856029510498, 
163, 626638714, -157.8251495361328, -81.35257720947266, -95.99059295654297, 9.994576454162598, -0.374985933303833, -0.35900598764419556, 2.8048999309539795, -17.290660858154297, 0.9739173054695129, 
164, 626647047, -158.1219940185547, -81.229736328125, -95.66629791259766, 9.980830192565918, -0.35713645815849304, -0.3481626808643341, 2.9963672161102295, -16.383459091186523, 0.9635950922966003, 
165, 626655380, -158.3618927001953, -81.10707092285156, -95.4001235961914, 9.971976280212402, -0.36733174324035645, -0.31823965907096863, 2.8585875034332275, -15.45340347290039, 0.9725342392921448, 
166, 626663713, -158.60133361816406, -80.9994888305664, -95.13557434082031, 9.96137809753418, -0.3762209117412567, -0.34096580743789673, 2.779618978500366, -14.511005401611328, 1.0540131330490112, 
167, 626672046, -158.79373168945312, -80.89112091064453, -94.91748046875, 9.953104972839355, -0.38905009627342224, -0.3417007029056549, 2.83077073097229, -13.58464241027832, 0.9623398184776306, 
168, 626680379, -158.98953247070312, -80.80029296875, -94.69721984863281, 9.94931411743164, -0.3914060592651367, -0.3484104871749878, 2.753312826156616, -12.552231788635254, 0.9227657318115234, 
169, 626688712, -159.13604736328125, -80.70707702636719, -94.5255355834961, 9.93126106262207, -0.38651785254478455, -0.33454301953315735, 2.8290798664093018, -11.60811710357666, 0.9839582443237305, 
170, 626697045, -159.28001403808594, -80.63336181640625, -94.35636901855469, 9.920562744140625, -0.3782057464122772, -0.3204188644886017, 2.8886070251464844, -10.500402450561523, 0.999019205570221, 
171, 626705378, -159.3811798095703, -80.5556869506836, -94.2300796508789, 9.912944793701172, -0.3861672878265381, -0.32339853048324585, 2.8860199451446533, -9.57659912109375, 1.0541410446166992, 
172, 626713711, -159.48294067382812, -80.49796295166016, -94.10328674316406, 9.918610572814941, -0.40110722184181213, -0.3404827117919922, 2.922290086746216, -8.614554405212402, 1.0372613668441772, 
173, 626722044, -159.5428009033203, -80.43608093261719, -94.01763153076172, 9.917244911193848, -0.4099007248878479, -0.3719014823436737, 3.0235936641693115, -7.541445255279541, 1.0894886255264282, 
174, 626730377, -159.59815979003906, -80.3958740234375, -93.93697357177734, 9.907970428466797, -0.39246487617492676, -0.3736017346382141, 3.029203414916992, -6.50542688369751, 1.1303434371948242, 
175, 626738710, -159.6170196533203, -80.34944152832031, -93.8926773071289, 9.954141616821289, -0.38901063799858093, -0.37611663341522217, 3.0580193996429443, -5.5198163986206055, 1.1918431520462036, 
176, 626747043, -159.62876892089844, -80.32596588134766, -93.85572052001953, 9.924288749694824, -0.39994174242019653, -0.3630485236644745, 3.083787202835083, -4.492916107177734, 1.2501922845840454, 
177, 626755376, -159.60813903808594, -80.29633331298828, -93.85030364990234, 9.922054290771484, -0.39135506749153137, -0.3535293936729431, 3.1824023723602295, -3.37436842918396, 1.2254745960235596, 
178, 626763709, -159.58026123046875, -80.29084777832031, -93.85225677490234, 9.941028594970703, -0.38618698716163635, -0.3567817509174347, 3.220592975616455, -2.371903896331787, 1.2482458353042603, 
179, 626772042, -159.52317810058594, -80.27732849121094, -93.8844223022461, 9.947835922241211, -0.37386688590049744, -0.3638131320476532, 3.1142683029174805, -1.2999738454818726, 1.2692750692367554, 
180, 626780375, -159.45431518554688, -80.29023742675781, -93.92809295654297, 9.957343101501465, -0.3659991919994354, -0.33202630281448364, 3.196131706237793, -0.17778842151165009, 1.2834398746490479, 
181, 626788708, -159.35745239257812, -80.2939224243164, -94.0005111694336, 9.932901382446289, -0.38364458084106445, -0.303824782371521, 3.132301092147827, 0.9219716191291809, 1.309643268585205, 
182, 626797041, -159.25125122070312, -80.32514953613281, -94.08193969726562, 9.953852653503418, -0.37654420733451843, -0.3181997835636139, 3.1998069286346436, 1.9777007102966309, 1.2303029298782349, 
183, 626805374, -159.11119079589844, -80.34693908691406, -94.19725036621094, 9.936657905578613, -0.3822217881679535, -0.34031814336776733, 3.246284246444702, 3.2608845233917236, 1.3334388732910156, 
184, 626813707, -158.96043395996094, -80.3963851928711, -94.32318115234375, 9.944610595703125, -0.36389634013175964, -0.3534008860588074, 3.2646498680114746, 4.169216156005859, 1.2718877792358398, 
185, 626822040, -158.78199768066406, -80.43458557128906, -94.47708892822266, 9.925729751586914, -0.3892906606197357, -0.34387069940567017, 3.276777982711792, 5.364132881164551, 1.3110902309417725, 
186, 626830373, -158.58238220214844, -80.50191497802734, -94.6526870727539, 9.944297790527344, -0.3838732838630676, -0.3720147907733917, 3.233707904815674, 6.368762016296387, 1.3658151626586914, 
187, 626838706, -158.36558532714844, -80.55412292480469, -94.84591674804688, 9.945734977722168, -0.3772616386413574, -0.3667486608028412, 3.218723773956299, 7.199892997741699, 1.3503186702728271, 
188, 626847039, -158.12237548828125, -80.63658142089844, -95.06471252441406, 9.941085815429688, -0.39215120673179626, -0.3757908344268799, 3.3422608375549316, 8.219313621520996, 1.3840268850326538, 
189, 626855372, -157.8565216064453, -80.7042007446289, -95.3062744140625, 9.936978340148926, -0.4018818140029907, -0.3648064136505127, 3.375302791595459, 9.24467658996582, 1.4173252582550049, 
190, 626863705, -157.56643676757812, -80.80281829833984, -95.57232666015625, 9.924686431884766, -0.381163626909256, -0.34412315487861633, 3.3299152851104736, 10.195402145385742, 1.3449653387069702, 
191, 626872038, -157.25218200683594, -80.88445281982422, -95.8624267578125, 9.937719345092773, -0.39377522468566895, -0.3814542591571808, 3.4263269901275635, 11.127042770385742, 1.4543379545211792, 
192, 626880371, -156.90504455566406, -80.9968032836914, -96.1851806640625, 9.919943809509277, -0.3787700831890106, -0.3393298089504242, 3.4514803886413574, 11.980815887451172, 1.4624065160751343, 
193, 626888704, -156.53707885742188, -81.09051513671875, -96.52889251708984, 9.955678939819336, -0.3742451071739197, -0.359439492225647, 3.4782469272613525, 12.803878784179688, 1.5655293464660645, 
194, 626897037, -156.12933349609375, -81.21754455566406, -96.91229248046875, 9.948188781738281, -0.3793237507343292, -0.3511371314525604, 3.4823195934295654, 13.861310958862305, 1.4823853969573975, 
195, 626905370, -155.70318603515625, -81.32463836669922, -97.3141098022461, 9.9841890335083, -0.3794730007648468, -0.35867783427238464, 3.5382871627807617, 14.6423921585083, 1.552722454071045, 
196, 626913703, -155.2308807373047, -81.46347045898438, -97.76290893554688, 9.979256629943848, -0.398221492767334, -0.3153197765350342, 3.4500460624694824, 15.464866638183594, 1.5452686548233032, 
197, 626922036, -154.74319458007812, -81.58277893066406, -98.22651672363281, 9.994423866271973, -0.38451626896858215, -0.33400413393974304, 3.5602896213531494, 16.358110427856445, 1.4976005554199219, 
198, 626930369, -154.20126342773438, -81.73356628417969, -98.7457275390625, 9.978307723999023, -0.3808480501174927, -0.3478986322879791, 3.3828086853027344, 17.080280303955078, 1.5147109031677246, 
199, 626938702, -153.64149475097656, -81.86250305175781, -99.28244018554688, 10.00041675567627, -0.37864038348197937, -0.3664367198944092, 3.4969329833984375, 17.842315673828125, 1.5698710680007935, 
200, 626947035, -153.01670837402344, -82.02326202392578, -99.88365173339844, 9.988811492919922, -0.3615664839744568, -0.35019055008888245, 3.546574115753174, 18.555341720581055, 1.546229362487793, 
201, 626955368, -152.37823486328125, -82.16141510009766, -100.49935913085938, 9.988898277282715, -0.38500723242759705, -0.38976985216140747, 3.5040791034698486, 19.28742218017578, 1.551992416381836, 
202, 626963701, -151.6680908203125, -82.33059692382812, -101.18563842773438, 9.98640251159668, -0.38628652691841125, -0.37011587619781494, 3.5985705852508545, 19.83241844177246, 1.4854724407196045, 
203, 626972034, -150.94871520996094, -82.4755859375, -101.88275909423828, 9.98066234588623, -0.3729879856109619, -0.40989577770233154, 3.4561941623687744, 20.451398849487305, 1.4790561199188232, 
204, 626980367, -150.1325225830078, -82.65065002441406, -102.67574310302734, 9.980998992919922, -0.38744866847991943, -0.3709452748298645, 3.5689992904663086, 20.984817504882812, 1.606000304222107, 
205, 626988700, -149.31138610839844, -82.79988098144531, -103.47319030761719, 9.976142883300781, -0.3954678177833557, -0.3608907461166382, 3.6656293869018555, 21.44319725036621, 1.5699228048324585, 
206, 626997033, -148.37612915039062, -82.98001861572266, -104.3848876953125, 9.967179298400879, -0.3994283378124237, -0.38507261872291565, 3.638247489929199, 22.08634376525879, 1.6384921073913574, 
207, 627005366, -147.4354248046875, -83.13264465332031, -105.30276489257812, 9.991659164428711, -0.42305928468704224, -0.3734391927719116, 3.6090855598449707, 22.45315170288086, 1.6837396621704102, 
208, 627013699, -146.37286376953125, -83.31361389160156, -106.34198760986328, 10.005268096923828, -0.3932303786277771, -0.36228206753730774, 3.637338399887085, 22.775331497192383, 1.7146048545837402, 
209, 627022032, -145.3085174560547, -83.46703338623047, -107.3833999633789, 9.998807907104492, -0.3946152925491333, -0.3741398751735687, 3.628988027572632, 23.15406036376953, 1.7095842361450195, 
210, 627030365, -144.11036682128906, -83.64714050292969, -108.5573959350586, 9.992746353149414, -0.3887086808681488, -0.38641268014907837, 3.7494516372680664, 23.292020797729492, 1.678898572921753, 
211, 627038698, -142.90658569335938, -83.79901123046875, -109.73785400390625, 10.012300491333008, -0.36558157205581665, -0.38347312808036804, 3.713912010192871, 23.704626083374023, 1.7534232139587402, 
212, 627047031, -141.5474090576172, -83.97806549072266, -111.07318115234375, 9.9989595413208, -0.3710564970970154, -0.38150840997695923, 3.6931264400482178, 23.91280746459961, 1.62562096118927, 
213, 627055364, -140.19696044921875, -84.12704467773438, -112.40091705322266, 10.003022193908691, -0.3717954456806183, -0.4009321928024292, 3.6369032859802246, 24.108861923217773, 1.6756457090377808, 
214, 627063697, -138.6497344970703, -84.30143737792969, -113.92442321777344, 10.018842697143555, -0.35779961943626404, -0.39725688099861145, 3.7243247032165527, 24.37955093383789, 1.691296100616455, 
215, 627072030, -137.1334686279297, -84.44522094726562, -115.41869354248047, 10.017742156982422, -0.3817135691642761, -0.4093452990055084, 3.546010971069336, 24.401233673095703, 1.6269402503967285, 
216, 627080363, -135.40420532226562, -84.6122817993164, -117.12493133544922, 10.00574779510498, -0.3711012601852417, -0.39325952529907227, 3.611032724380493, 24.469022750854492, 1.590170979499817, 
217, 627088696, -133.70050048828125, -84.74842071533203, -118.80609893798828, 9.981818199157715, -0.38695070147514343, -0.3878101408481598, 3.645176410675049, 24.59409523010254, 1.6351238489151, 
218, 627097029, -131.7548828125, -84.90538024902344, -120.72834777832031, 10.000981330871582, -0.3910025358200073, -0.39694708585739136, 3.650376319885254, 24.564743041992188, 1.6387611627578735, 
219, 627105362, -129.86917114257812, -85.030517578125, -122.59104919433594, 9.992798805236816, -0.38652753829956055, -0.4217524528503418, 3.6918842792510986, 24.455049514770508, 1.59461510181427, 
220, 627113695, -127.70802307128906, -85.17501068115234, -124.7560806274414, 9.97276496887207, -0.3891909718513489, -0.3943020701408386, 3.632075548171997, 24.453773498535156, 1.6027860641479492, 
221, 627122028, -125.6314697265625, -85.28694915771484, -126.80950164794922, 9.993103981018066, -0.38684001564979553, -0.430381178855896, 3.6968276500701904, 24.23830223083496, 1.6202294826507568, 
222, 627130361, -123.27073669433594, -85.41499328613281, -129.17138671875, 9.956501960754395, -0.40087762475013733, -0.4300362169742584, 3.6568825244903564, 24.003610610961914, 1.6024401187896729, 
223, 627138694, -121.03343963623047, -85.51030731201172, -131.3870086669922, 9.968768119812012, -0.39493826031684875, -0.41600266098976135, 3.5191283226013184, 23.67623519897461, 1.6593291759490967, 
224, 627147027, -118.4980697631836, -85.6194839477539, -133.92555236816406, 9.961197853088379, -0.38250064849853516, -0.4172753393650055, 3.6081128120422363, 23.359540939331055, 1.6283105611801147, 
225, 627155360, -116.12657928466797, -85.69761657714844, -136.27420043945312, 9.962346076965332, -0.4007721543312073, -0.4282260537147522, 3.6256961822509766, 23.0228271484375, 1.6222782135009766, 
226, 627163693, -113.45382690429688, -85.78704071044922, -138.94879150390625, 9.94450855255127, -0.39796286821365356, -0.421257346868515, 3.5876598358154297, 22.610593795776367, 1.5936673879623413, 
227, 627172026, -110.99710845947266, -85.84659576416016, -141.3823699951172, 9.94823932647705, -0.41579049825668335, -0.392865926027298, 3.6389007568359375, 22.173009872436523, 1.6174756288528442, 
228, 627180359, -108.228515625, -85.91558074951172, -144.1525115966797, 9.950270652770996, -0.38971272110939026, -0.42121589183807373, 3.617692470550537, 21.806293487548828, 1.611943006515503, 
229, 627188692, -105.73762512207031, -85.9563980102539, -146.6197052001953, 9.933451652526855, -0.38785722851753235, -0.406931608915329, 3.6538331508636475, 21.240753173828125, 1.6286431550979614, 
230, 627197025, -102.94022369384766, -86.00424194335938, -149.419189453125, 9.94261360168457, -0.3977451026439667, -0.42446473240852356, 3.5790913105010986, 20.852645874023438, 1.6877096891403198, 
231, 627205358, -100.47639465332031, -86.02704620361328, -151.85984802246094, 9.938828468322754, -0.38239461183547974, -0.418191134929657, 3.5603668689727783, 20.215669631958008, 1.6288224458694458, 
232, 627213691, -97.7522964477539, -86.0561294555664, -154.58387756347656, 9.94613265991211, -0.3860871195793152, -0.3805001378059387, 3.4880194664001465, 19.54886817932129, 1.6020171642303467, 
233, 627222024, -95.3943862915039, -86.06348419189453, -156.9188690185547, 9.927183151245117, -0.38528531789779663, -0.41569122672080994, 3.523956298828125, 18.95461654663086, 1.4992015361785889, 
234, 627230357, -92.78645324707031, -86.0760498046875, -159.52670288085938, 9.91789436340332, -0.3765608072280884, -0.40911877155303955, 3.4804117679595947, 18.305269241333008, 1.5293750762939453, 
235, 627238690, -90.58268737792969, -86.06946563720703, -161.70704650878906, 9.905299186706543, -0.378177285194397, -0.4151361286640167, 3.525928497314453, 17.604001998901367, 1.484729528427124, 
236, 627247023, -88.15766906738281, -86.06806945800781, -164.13113403320312, 9.897527694702148, -0.37412598729133606, -0.4363507032394409, 3.557894706726074, 16.8364200592041, 1.5133662223815918, 
237, 627255356, -86.16510772705078, -86.05047607421875, -166.1001434326172, 9.890454292297363, -0.38129568099975586, -0.4427908957004547, 3.4669902324676514, 16.031620025634766, 1.4963327646255493, 
238, 627263689, -83.96693420410156, -86.03800201416016, -168.29736328125, 9.878244400024414, -0.3911411762237549, -0.3923535943031311, 3.3941943645477295, 15.259377479553223, 1.5097545385360718, 
239, 627272022, -82.2055435180664, -86.01277923583984, -170.03512573242188, 9.859353065490723, -0.39788123965263367, -0.38567042350769043, 3.4193472862243652, 14.414593696594238, 1.4693353176116943, 
240, 627280355, -80.25596618652344, -85.99259185791016, -171.98117065429688, 9.855578422546387, -0.38638022541999817, -0.44223302602767944, 3.4230618476867676, 13.58021068572998, 1.5180281400680542, 
241, 627288688, -78.73918151855469, -85.96216583251953, -173.4737548828125, 9.833348274230957, -0.3824719190597534, -0.44253817200660706, 3.4396588802337646, 12.712191581726074, 1.4959994554519653, 
242, 627297021, -77.05473327636719, -85.93765258789062, -175.1551971435547, 9.825984954833984, -0.3907065689563751, -0.4310048222541809, 3.387470245361328, 11.783381462097168, 1.5322821140289307, 
243, 627305354, -75.7965087890625, -85.90571594238281, -176.38897705078125, 9.843368530273438, -0.3664272725582123, -0.4334908127784729, 3.3932461738586426, 10.82116985321045, 1.463469386100769, 
244, 627313687, -74.37434387207031, -85.88077545166016, -177.80960083007812, 9.830937385559082, -0.380170077085495, -0.4106847047805786, 3.3814122676849365, 9.899518966674805, 1.435908555984497, 
245, 627322020, -73.36087799072266, -85.8497543334961, -178.7991943359375, 9.82857894897461, -0.38713061809539795, -0.44087672233581543, 3.266660451889038, 8.941162109375, 1.4104735851287842, 
246, 627330353, -72.20913696289062, -85.82655334472656, -179.95018005371094, 9.832245826721191, -0.38039669394493103, -0.4131467342376709, 3.227112054824829, 7.841465473175049, 1.3873695135116577, 
247, 627338686, -71.4275131225586, -85.79862976074219, 179.29347229003906, 9.842374801635742, -0.37523898482322693, -0.43142518401145935, 3.3497278690338135, 7.018890857696533, 1.3392406702041626, 
248, 627347019, -70.52064514160156, -85.77896118164062, 178.38917541503906, 9.839094161987305, -0.36713364720344543, -0.463763564825058, 3.389582872390747, 5.872036933898926, 1.3891366720199585, 
249, 627355352, -69.98859405517578, -85.75498962402344, 177.88157653808594, 9.83519172668457, -0.363390177488327, -0.437818318605423, 3.2113590240478516, 4.866217613220215, 1.3933629989624023, 
250, 627363685, -69.31636047363281, -85.74085235595703, 177.2115020751953, 9.82641887664795, -0.3764179050922394, -0.41639453172683716, 3.2321321964263916, 3.8720779418945312, 1.2861930131912231, 
251, 627372018, -69.00798034667969, -85.72355651855469, 176.92860412597656, 9.803277969360352, -0.39148470759391785, -0.42138275504112244, 3.2508819103240967, 2.7633919715881348, 1.2745132446289062, 
252, 627380351, -68.56832885742188, -85.71591186523438, 176.49285888671875, 9.795766830444336, -0.3787466883659363, -0.4377119541168213, 3.1862826347351074, 1.7874125242233276, 1.218392252922058, 
253, 627388684, -68.47189331054688, -85.70509338378906, 176.4213104248047, 9.809635162353516, -0.3843580484390259, -0.44741880893707275, 3.117150068283081, 0.7282383441925049, 1.1986438035964966, 
254, 627397017, -68.26274871826172, -85.70436096191406, 176.21832275390625, 9.793508529663086, -0.3745329678058624, -0.41591835021972656, 3.1289072036743164, -0.3053601384162903, 1.2328643798828125, 
255, 627405350, -68.38874816894531, -85.70008087158203, 176.36949157714844, 9.799320220947266, -0.3909113109111786, -0.4284810721874237, 3.080828905105591, -1.4245357513427734, 1.2082234621047974, 
256, 627413683, -68.4104232788086, -85.70641326904297, 176.3938446044922, 9.800451278686523, -0.38908660411834717, -0.4446796774864197, 3.0114269256591797, -2.4338133335113525, 1.201064109802246, 
257, 627422016, -68.75672912597656, -85.70892333984375, 176.76504516601562, 9.793381690979004, -0.40273532271385193, -0.42661601305007935, 2.9816508293151855, -3.576157331466675, 1.1547410488128662, 
258, 627430349, -69.02188873291016, -85.7233657836914, 177.03366088867188, 9.804655075073242, -0.39409735798835754, -0.43252548575401306, 3.098989725112915, -4.700353145599365, 1.1215449571609497, 
259, 627438682, -69.58565521240234, -85.73281860351562, 177.6237030029297, 9.802055358886719, -0.4030199646949768, -0.4389134645462036, 3.064051866531372, -5.6931610107421875, 1.0474685430526733, 
260, 627447015, -70.07098388671875, -85.75259399414062, 178.1120147705078, 9.80481243133545, -0.38748899102211, -0.4404987096786499, 2.9703290462493896, -6.621369361877441, 1.1523845195770264, 
261, 627455348, -70.85948181152344, -85.76585388183594, 178.92654418945312, 9.799036026000977, -0.38691216707229614, -0.44826722145080566, 2.9890530109405518, -7.711818218231201, 1.1487470865249634, 
262, 627463681, -71.59109497070312, -85.79155731201172, 179.661865234375, 9.835214614868164, -0.3934670388698578, -0.42286574840545654, 3.010082960128784, -8.752732276916504, 1.0684467554092407, 
263, 627472014, -72.61830139160156, -85.80866241455078, -179.28424072265625, 9.821764945983887, -0.3713694214820862, -0.42705610394477844, 2.976400136947632, -9.810751914978027, 1.1472105979919434, 
264, 627480347, -73.60842895507812, -85.83760070800781, -178.290283203125, 9.839129447937012, -0.36789989471435547, -0.4214036762714386, 2.936211347579956, -10.83549976348877, 1.093061923980713, 
265, 627488680, -74.85307312011719, -85.8570785522461, -177.0186004638672, 9.839098930358887, -0.3849491477012634, -0.4114575982093811, 2.9669229984283447, -11.636919975280762, 1.0137091875076294, 
266, 627497013, -76.08983612060547, -85.88734436035156, -175.77757263183594, 9.862836837768555, -0.3882860541343689, -0.41713279485702515, 2.929654598236084, -12.704010963439941, 1.080920934677124, 
267, 627505346, -77.59426879882812, -85.90633392333984, -174.24623107910156, 9.872713088989258, -0.3895387053489685, -0.41284385323524475, 2.863288164138794, -13.69099235534668, 1.047724962234497, 
268, 627513679, -79.08277893066406, -85.9360122680664, -172.75216674804688, 9.86302661895752, -0.3783527910709381, -0.43745696544647217, 2.8769917488098145, -14.527899742126465, 0.9782592058181763, 
269, 627522012, -80.83170318603516, -85.95233154296875, -170.9768829345703, 9.856539726257324, -0.3816767632961273, -0.43041324615478516, 2.759370803833008, -15.552262306213379, 0.9613792300224304, 
270, 627530345, -82.57829284667969, -85.97843933105469, -169.2269287109375, 9.870735168457031, -0.36002886295318604, -0.4387819170951843, 2.776634693145752, -16.317026138305664, 0.976671040058136, 
271, 627538678, -84.55506134033203, -85.98873901367188, -167.2234344482422, 9.864293098449707, -0.38512924313545227, -0.41675838828086853, 2.76364803314209, -17.248485565185547, 0.9163492918014526, 
272, 627547011, -86.55257415771484, -86.00737762451172, -165.21795654296875, 9.878265380859375, -0.3968852758407593, -0.4289707541465759, 2.8131349086761475, -18.053543090820312, 1.017115831375122, 
273, 627555344, -88.74385833740234, -86.00855255126953, -162.99916076660156, 9.880496978759766, -0.3979400098323822, -0.43547117710113525, 2.7865607738494873, -18.903541564941406, 0.8920800089836121, 
274, 627563677, -90.95578002929688, -86.01818084716797, -160.78761291503906, 9.892019271850586, -0.40503573417663574, -0.41532522439956665, 2.809971809387207, -19.589900970458984, 0.832347571849823, 
275, 627572010, -93.3192367553711, -86.0060043334961, -158.39662170410156, 9.895602226257324, -0.3712380528450012, -0.4115406274795532, 2.7340643405914307, -20.37299346923828, 1.0019524097442627, 
276, 627580343, -95.71174621582031, -86.0007095336914, -156.00189208984375, 9.910296440124512, -0.38711631298065186, -0.41689786314964294, 2.7159295082092285, -21.06510353088379, 0.9695502519607544, 
277, 627588676, -98.19676971435547, -85.97415924072266, -153.48878479003906, 9.902493476867676, -0.3813411593437195, -0.42188236117362976, 2.734102964401245, -21.713886260986328, 0.9132118821144104, 
278, 627597009, -100.69461059570312, -85.95339965820312, -150.98406982421875, 9.925612449645996, -0.37683647871017456, -0.4121338725090027, 2.666673421859741, -22.23494529724121, 0.9189622402191162, 
279, 627605342, -103.24961853027344, -85.90897369384766, -148.40184020996094, 9.933121681213379, -0.4041903018951416, -0.41267478466033936, 2.6345534324645996, -22.990388870239258, 0.9314621686935425, 
280, 627613675, -105.81005096435547, -85.86985778808594, -145.83619689941406, 9.940299034118652, -0.3744431734085083, -0.41566193103790283, 2.705095052719116, -23.475906372070312, 0.9398891925811768, 
281, 627622008, -108.3467025756836, -85.80847930908203, -143.27102661132812, 9.926820755004883, -0.37727269530296326, -0.4223032295703888, 2.7041985988616943, -23.902587890625, 0.8118692636489868, 
282, 627630341, -110.89301300048828, -85.75084686279297, -140.71807861328125, 9.958685874938965, -0.3894728124141693, -0.4149238169193268, 2.6117312908172607, -24.433929443359375, 0.8652493357658386, 
283, 627638674, -113.36743927001953, -85.67002868652344, -138.21507263183594, 9.953468322753906, -0.37942853569984436, -0.4068968892097473, 2.7171595096588135, -24.850801467895508, 0.8393789529800415, 
284, 627647007, -115.84282684326172, -85.59335327148438, -135.73507690429688, 9.980525970458984, -0.3768816590309143, -0.3894539475440979, 2.604930877685547, -25.318607330322266, 0.8559898138046265, 
285, 627655340, -118.20067596435547, -85.49385070800781, -133.3489990234375, 9.967942237854004, -0.38256433606147766, -0.392727255821228, 2.6616921424865723, -25.63307762145996, 0.8477421402931213, 
286, 627663673, -120.55280303955078, -85.39874267578125, -130.99327087402344, 9.958158493041992, -0.38399359583854675, -0.39163723587989807, 2.5490148067474365, -26.018648147583008, 0.8449244499206543, 
287, 627672006, -122.75255584716797, -85.28116607666016, -128.7657470703125, 9.959275245666504, -0.3896423876285553, -0.37711894512176514, 2.6113085746765137, -26.267438888549805, 0.9177201390266418, 
288, 627680339, -124.94622039794922, -85.17115783691406, -126.56800842285156, 9.98384952545166, -0.3882826864719391, -0.40053731203079224, 2.6309163570404053, -26.46377182006836, 0.6704017519950867, 
289, 627688672, -126.95816802978516, -85.03935241699219, -124.52857208251953, 9.98320198059082, -0.3816823363304138, -0.4214068055152893, 2.5557639598846436, -26.577587127685547, 0.8671703934669495, 
290, 627697005, -128.96481323242188, -84.91426849365234, -122.49444580078125, 9.979264259338379, -0.3939160406589508, -0.3909555971622467, 2.5999491214752197, -26.76680564880371, 0.744478166103363, 
291, 627705338, -130.78695678710938, -84.77033233642578, -120.64479064941406, 9.970904350280762, -0.3962944746017456, -0.38568735122680664, 2.5458905696868896, -26.77890968322754, 0.796692967414856, 
292, 627713671, -132.6106414794922, -84.63227844238281, -118.79370880126953, 9.991083145141602, -0.3713843524456024, -0.3883261978626251, 2.5787277221679688, -27.026365280151367, 0.7906222939491272, 
293, 627722004, -134.2510986328125, -84.47721099853516, -117.12519073486328, 9.998796463012695, -0.3978004455566406, -0.39189091324806213, 2.620837450027466, -26.977750778198242, 0.7823233008384705, 
294, 627730337, -135.89407348632812, -84.3297119140625, -115.45389556884766, 9.978606224060059, -0.4039457440376282, -0.4049121141433716, 2.668736219406128, -27.07764434814453, 0.7503567337989807, 
295, 627738670, -137.3509979248047, -84.16638946533203, -113.96930694580078, 9.991073608398438, -0.39543434977531433, -0.38218921422958374, 2.5740914344787598, -26.89813995361328, 0.8232036232948303, 
296, 627747003, -138.80862426757812, -84.01227569580078, -112.48419952392578, 9.977760314941406, -0.3939995765686035, -0.3912959396839142, 2.6005256175994873, -26.78403091430664, 0.8048126101493835, 
297, 627755336, -140.09645080566406, -83.84413146972656, -111.16819763183594, 9.996108055114746, -0.39696651697158813, -0.34312328696250916, 2.6203761100769043, -26.602218627929688, 0.785627543926239, 
298, 627763669, -141.3958282470703, -83.68444061279297, -109.8409652709961, 10.027909278869629, -0.38744741678237915, -0.38719356060028076, 2.6958870887756348, -26.57773208618164, 0.8283264636993408, 
299, 627772002, -142.5313262939453, -83.5126953125, -108.67730712890625, 10.000429153442383, -0.4045103192329407, -0.3866685926914215, 2.6575424671173096, -26.223997116088867, 0.7924408912658691, 
300, 627780335, -143.68202209472656, -83.35188293457031, -107.49950408935547, 9.991010665893555, -0.37803080677986145, -0.3741413354873657, 2.6061089038848877, -25.997127532958984, 0.7779174447059631, 
301, 627788668, -144.67117309570312, -83.1792984008789, -106.48267364501953, 10.009721755981445, -0.3801182210445404, -0.3719673752784729, 2.642775774002075, -25.5570125579834, 0.8727542757987976, 
302, 627797001, -145.6719512939453, -83.02051544189453, -105.45513153076172, 9.997264862060547, -0.39576566219329834, -0.342604398727417, 2.6074790954589844, -25.031307220458984, 0.8625598549842834, 
303, 627805334, -146.5391387939453, -82.85008239746094, -104.56036376953125, 10.010076522827148, -0.381411075592041, -0.3684390187263489, 2.634476661682129, -24.742761611938477, 0.8098713159561157, 
304, 627813667, -147.4275665283203, -82.69379425048828, -103.6448745727539, 10.007782936096191, -0.3820153772830963, -0.3605394959449768, 2.6622426509857178, -24.267210006713867, 0.7852560877799988, 
305, 627822000, -148.17947387695312, -82.52629852294922, -102.8660659790039, 9.999807357788086, -0.3966768682003021, -0.3865258991718292, 2.6030349731445312, -23.81540870666504, 0.9077816605567932, 
306, 627830333, -148.95587158203125, -82.3746566772461, -102.06322479248047, 10.001446723937988, -0.37635788321495056, -0.38455307483673096, 2.6536998748779297, -23.20530128479004, 0.8496116995811462, 
307, 627838666, -149.60443115234375, -82.213134765625, -101.38775634765625, 9.999405860900879, -0.4037376940250397, -0.36676329374313354, 2.6454265117645264, -22.61983871459961, 0.9343692660331726, 
308, 627846999, -150.28964233398438, -82.06721496582031, -100.67620086669922, 9.99682331085205, -0.37423190474510193, -0.3522106111049652, 2.656466007232666, -22.179141998291016, 0.8437203764915466, 
309, 627855332, -150.85240173339844, -81.9122314453125, -100.08643341064453, 9.972766876220703, -0.38447561860084534, -0.373653382062912, 2.6919033527374268, -21.458372116088867, 0.9338696599006653, 
310, 627863665, -151.4453582763672, -81.77496337890625, -99.46723175048828, 9.969066619873047, -0.38599279522895813, -0.35436686873435974, 2.7178380489349365, -20.773971557617188, 0.8983811736106873, 
311, 627871998, -151.9361572265625, -81.62776184082031, -98.94891357421875, 9.975386619567871, -0.3860299289226532, -0.4104430079460144, 2.806309223175049, -20.218347549438477, 0.8616759181022644, 
312, 627880331, -152.4510498046875, -81.49915313720703, -98.40778350830078, 9.964606285095215, -0.4155086576938629, -0.37996527552604675, 2.766965627670288, -19.448917388916016, 0.9674113392829895, 
313, 627888664, -152.86380004882812, -81.36182403564453, -97.96882629394531, 9.97787094116211, -0.39013010263442993, -0.35938096046447754, 2.6975765228271484, -18.667428970336914, 0.9944601058959961, 
314, 627896997, -153.31053161621094, -81.24500274658203, -97.49564361572266, 9.973786354064941, -0.4011545181274414, -0.33813655376434326, 2.848137378692627, -17.847288131713867, 0.8960502743721008, 
315, 627905330, -153.6581573486328, -81.11895751953125, -97.12129211425781, 9.9540433883667, -0.3902181088924408, -0.35863953828811646, 2.825263738632202, -17.03160285949707, 0.9911303520202637, 
316, 627913663, -154.03326416015625, -81.01358032226562, -96.72106170654297, 9.954571723937988, -0.3798503577709198, -0.3389444947242737, 2.750777244567871, -16.208538055419922, 1.0964816808700562, 
317, 627921996, -154.32298278808594, -80.90000915527344, -96.40608215332031, 9.950765609741211, -0.3543713390827179, -0.34194594621658325, 2.7171969413757324, -15.2756929397583, 0.9902592897415161, 
318, 627930329, -154.6396942138672, -80.8091049194336, -96.06403350830078, 9.956503868103027, -0.3935370147228241, -0.34040531516075134, 2.833357095718384, -14.350914001464844, 1.0488389730453491, 
319, 627938662, -154.86744689941406, -80.70880889892578, -95.81079864501953, 9.96854305267334, -0.37713339924812317, -0.33552736043930054, 2.815401554107666, -13.391122817993164, 1.1270904541015625, 
320, 627946995, -155.12680053710938, -80.63277435302734, -95.52729034423828, 9.950492858886719, -0.4051760733127594, -0.3480532765388489, 2.7688353061676025, -12.408023834228516, 1.1008871793746948, 
321, 627955328, -155.30609130859375, -80.54657745361328, -95.3224868774414, 9.965993881225586, -0.3827054798603058, -0.33642086386680603, 2.8647348880767822, -11.516955375671387, 1.1086483001708984, 
322, 627963661, -155.51451110839844, -80.48555755615234, -95.08919525146484, 9.956250190734863, -0.3775174617767334, -0.3451327681541443, 2.9384779930114746, -10.49051570892334, 1.0972756147384644, 
323, 627971994, -155.64694213867188, -80.41535949707031, -94.93218231201172, 9.928915977478027, -0.39518311619758606, -0.34831324219703674, 2.842783212661743, -9.398785591125488, 1.0551656484603882, 
324, 627980327, -155.80810546875, -80.3701171875, -94.7459716796875, 9.90932559967041, -0.38172557950019836, -0.3509860336780548, 2.987529754638672, -8.543066024780273, 1.1049854755401611, 
325, 627988660, -155.8949432373047, -80.31442260742188, -94.63412475585938, 9.92212200164795, -0.39857155084609985, -0.3731901943683624, 2.959481954574585, -7.466038703918457, 1.1048829555511475, 
326, 627996993, -156.01329040527344, -80.28558349609375, -94.4911117553711, 9.954251289367676, -0.3969871699810028, -0.3668592870235443, 3.031611442565918, -6.497230529785156, 1.040360689163208, 
327, 628005326, -156.05545043945312, -80.24490356445312, -94.42408752441406, 9.920637130737305, -0.384506493806839, -0.3382840156555176, 3.0140140056610107, -5.466487407684326, 1.17281174659729, 
328, 628013659, -156.12326049804688, -80.23246002197266, -94.3316650390625, 9.92449951171875, -0.3944239020347595, -0.34881216287612915, 3.102473020553589, -4.4072747230529785, 1.166933298110962, 
329, 628021992, -156.1230926513672, -80.20816802978516, -94.30638885498047, 9.911654472351074, -0.3866507411003113, -0.3545110821723938, 3.1613473892211914, -3.334845781326294, 1.146864652633667, 
330, 628030325, -156.14694213867188, -80.21186065673828, -94.2586441040039, 9.923383712768555, -0.3903440535068512, -0.3556112051010132, 3.066856622695923, -2.3934710025787354, 1.2254489660263062, 
331, 628038658, -156.10028076171875, -80.20307159423828, -94.28092956542969, 9.93570327758789, -0.3925411105155945, -0.34584295749664307, 3.113269567489624, -1.249769926071167, 1.2873073816299438, 
332, 628046991, -156.07350158691406, -80.22418212890625, -94.28385162353516, 9.944507598876953, -0.3928692936897278, -0.35704556107521057, 3.164933204650879, -0.17258870601654053, 1.3250627517700195, 
333, 628055324, -155.984375, -80.231689453125, -94.3481674194336, 9.933476448059082, -0.3802200257778168, -0.33660587668418884, 3.2276499271392822, 0.880028247833252, 1.2835294008255005, 
334, 628063657, -155.912841796875, -80.27005004882812, -94.39582824707031, 9.932621002197266, -0.3817763924598694, -0.3302651047706604, 3.249178171157837, 1.9740504026412964, 1.3134081363677979, 
335, 628071990, -155.78271484375, -80.2934799194336, -94.5014419555664, 9.952138900756836, -0.4105949103832245, -0.33899348974227905, 3.259398937225342, 2.9494922161102295, 1.2640753984451294, 
336, 628080323, -155.66529846191406, -80.34880828857422, -94.59568786621094, 9.939854621887207, -0.3869001865386963, -0.3154250681400299, 3.207017183303833, 4.089248180389404, 1.3258310556411743, 
337, 628088656, -155.4894561767578, -80.3880844116211, -94.74797058105469, 9.943662643432617, -0.3844187259674072, -0.3253386318683624, 3.2300961017608643, 5.059260368347168, 1.2981423139572144, 
338, 628096989, -155.32723999023438, -80.45948028564453, -94.88719177246094, 9.935990333557129, -0.39391452074050903, -0.35412222146987915, 3.257861614227295, 6.095150470733643, 1.2910470962524414, 
339, 628105322, -155.10733032226562, -80.51432037353516, -95.08324432373047, 9.94717788696289, -0.3882407546043396, -0.3409477472305298, 3.3276865482330322, 7.103302478790283, 1.2409201860427856, 
340, 628113655, -154.8944091796875, -80.60064697265625, -95.27324676513672, 9.94555377960205, -0.3696509599685669, -0.32839828729629517, 3.307579278945923, 8.008636474609375, 1.3540070056915283, 
341, 628121988, -154.6149139404297, -80.66938018798828, -95.52961730957031, 9.948487281799316, -0.38681265711784363, -0.33925774693489075, 3.332347869873047, 9.091017723083496, 1.4807462692260742, 
342, 628130321, -154.34442138671875, -80.77064514160156, -95.77679443359375, 9.932546615600586, -0.38993731141090393, -0.36875349283218384, 3.432973623275757, 9.97018814086914, 1.4331679344177246, 
343, 628138654, -154.0116729736328, -80.85284423828125, -96.0868911743164, 9.948224067687988, -0.3916292190551758, -0.36872169375419617, 3.3437845706939697, 10.951801300048828, 1.5283244848251343, 
344, 628146987, -153.67999267578125, -80.96869659423828, -96.39594268798828, 9.968544006347656, -0.388272225856781, -0.3578294813632965, 3.381514549255371, 11.901758193969727, 1.5009430646896362, 
345, 628155320, -153.2895050048828, -81.06413269042969, -96.76368713378906, 9.96410083770752, -0.381212055683136, -0.3399510681629181, 3.4158761501312256, 12.796987533569336, 1.5378146171569824, 
346, 628163653, -152.89886474609375, -81.19210815429688, -97.13243103027344, 9.958362579345703, -0.39398354291915894, -0.3519793748855591, 3.3819382190704346, 13.55258560180664, 1.5059510469436646, 
347, 628171986, -152.4516143798828, -81.29960632324219, -97.55693054199219, 9.982562065124512, -0.3852207064628601, -0.3713343143463135, 3.47184419631958, 14.489785194396973, 1.4514951705932617, 
348, 628180319, -151.99166870117188, -81.43998718261719, -97.99401092529297, 9.964583396911621, -0.3746670186519623, -0.3775195777416229, 3.534444808959961, 15.255034446716309, 1.4999569654464722, 
349, 628188652, -151.4794921875, -81.55834197998047, -98.48302459716797, 9.97949504852295, -0.3798808455467224, -0.3576969802379608, 3.541975736618042, 16.05776023864746, 1.419349193572998, 
350, 628196985, -150.94720458984375, -81.71006774902344, -98.99313354492188, 9.976602554321289, -0.39191144704818726, -0.3711313009262085, 3.5156188011169434, 16.87147331237793, 1.4261627197265625, 
351, 628205318, -150.3511199951172, -81.83740234375, -99.56671142578125, 9.9861478805542, -0.40917012095451355, -0.34366559982299805, 3.5517349243164062, 17.593334197998047, 1.5952422618865967, 
352, 628213651, -149.72613525390625, -81.99744415283203, -100.16963195800781, 9.975204467773438, -0.39579716324806213, -0.3590616285800934, 3.5300393104553223, 18.259815216064453, 1.6328949928283691, 
353, 628221984, -149.05364990234375, -82.13243865966797, -100.81938934326172, 9.991225242614746, -0.38840895891189575, -0.3692832291126251, 3.5994794368743896, 18.853708267211914, 1.5253663063049316, 
354, 628230317, -148.33929443359375, -82.29951477050781, -101.51190185546875, 9.976829528808594, -0.38793277740478516, -0.3610627055168152, 3.5542964935302734, 19.479721069335938, 1.6116098165512085, 
355, 628238650, -147.56930541992188, -82.4407730102539, -102.25883483886719, 9.985950469970703, -0.3839646577835083, -0.3577042520046234, 3.693202495574951, 20.105785369873047, 1.608254313468933, 
356, 628246983, -146.75050354003906, -82.61430358886719, -103.05506134033203, 9.972783088684082, -0.3877452611923218, -0.3947870433330536, 3.6764116287231445, 20.687108993530273, 1.5673611164093018, 
357, 628255316, -145.88352966308594, -82.76052856445312, -103.89956665039062, 9.994584083557129, -0.39940813183784485, -0.36930331587791443, 3.6515159606933594, 21.172121047973633, 1.5218449831008911, 
358, 628263649, -144.95230102539062, -82.9378662109375, -104.8080825805664, 9.998697280883789, -0.3926383852958679, -0.38170868158340454, 3.6693432331085205, 21.61184310913086, 1.54827880859375, 
359, 628271982, -143.9686279296875, -83.0857925415039, -105.77012634277344, 9.992342948913574, -0.39920756220817566, -0.3759942650794983, 3.599364995956421, 22.020593643188477, 1.629219651222229, 
360, 628280315, -142.90512084960938, -83.2641372680664, -106.81243896484375, 10.006053924560547, -0.4028593897819519, -0.4122462570667267, 3.548098564147949, 22.42577362060547, 1.6339457035064697, 
361, 628288648, -141.7952423095703, -83.41313934326172, -107.90140533447266, 10.005097389221191, -0.3986317813396454, -0.3835560977458954, 3.5346767902374268, 22.81369972229004, 1.6064870357513428, 
362, 628296981, -140.58522033691406, -83.591064453125, -109.08901977539062, 10.00273323059082, -0.38994237780570984, -0.3830897808074951, 3.679089069366455, 23.096660614013672, 1.6531819105148315, 
363, 628305314, -139.33628845214844, -83.73844146728516, -110.31626892089844, 9.988018035888672, -0.38535207509994507, -0.37735721468925476, 3.6386706829071045, 23.38387680053711, 1.5984443426132202, 
364, 628313647, -137.96719360351562, -83.91349792480469, -111.66301727294922, 10.000277519226074, -0.39328813552856445, -0.38208162784576416, 3.6881182193756104, 23.593690872192383, 1.6439990997314453, 
365, 628321980, -136.56759643554688, -84.05699920654297, -113.04049682617188, 10.011099815368652, -0.3852716386318207, -0.41336119174957275, 3.7062792778015137, 23.78336524963379, 1.5735598802566528, 
366, 628330313, -135.019775390625, -84.2273178100586, -114.5671157836914, 10.016427993774414, -0.3756434917449951, -0.4037095010280609, 3.5841124057769775, 24.04206085205078, 1.6209338903427124, 
367, 628338646, -133.45262145996094, -84.36402893066406, -116.11211395263672, 9.989258766174316, -0.3961816430091858, -0.4169061779975891, 3.690577983856201, 24.009416580200195, 1.6569344997406006, 
368, 628346979, -131.7201690673828, -84.52597045898438, -117.85671997070312, 9.9907865524292, -0.3728349804878235, -0.382219135761261, 3.7449052333831787, 24.134536743164062, 1.6399778127670288, 
369, 628355312, -129.96978759765625, -84.6544189453125, -119.58544158935547, 10.00269889831543, -0.3783368766307831, -0.37086671590805054, 3.6729931831359863, 24.232654571533203, 1.6824077367782593, 
370, 628363645, -128.0414581298828, -84.8055191040039, -121.52571868896484, 9.991613388061523, -0.37865808606147766, -0.401497483253479, 3.6340854167938232, 24.10634994506836, 1.66143000125885, 
371, 628371978, -126.1220932006836, -84.92233276367188, -123.4244155883789, 9.996847152709961, -0.38328737020492554, -0.38728970289230347, 3.594613790512085, 24.089725494384766, 1.646112322807312, 
372, 628380311, -124.00457000732422, -85.06100463867188, -125.55384826660156, 9.988909721374512, -0.3981677293777466, -0.4051358103752136, 3.663541793823242, 23.91070556640625, 1.5315910577774048, 
373, 628388644, -121.92668914794922, -85.1644287109375, -127.61014556884766, 9.967249870300293, -0.38875681161880493, -0.40602946281433105, 3.653500556945801, 23.729280471801758, 1.5887620449066162, 
374, 628396977, -119.6159439086914, -85.28640747070312, -129.93145751953125, 9.970636367797852, -0.388406366109848, -0.39687398076057434, 3.5038371086120605, 23.55705451965332, 1.6740577220916748, 
375, 628405310, -117.384765625, -85.37369537353516, -132.14056396484375, 9.965710639953613, -0.3881366550922394, -0.43358710408210754, 3.6882333755493164, 23.29996109008789, 1.6586121320724487, 
376, 628413643, -114.909423828125, -85.47814178466797, -134.628173828125, 9.969832420349121, -0.37512707710266113, -0.41592949628829956, 3.5659000873565674, 23.07642364501953, 1.6318449974060059, 
377, 628421976, -112.54598999023438, -85.5486068725586, -136.9699249267578, 9.954209327697754, -0.39353203773498535, -0.4148561656475067, 3.6268491744995117, 22.849111557006836, 1.6779124736785889, 
378, 628430309, -109.96070098876953, -85.63349914550781, -139.56504821777344, 9.936090469360352, -0.3909655809402466, -0.39114147424697876, 3.6451380252838135, 22.245513916015625, 1.6252751350402832, 
379, 628438642, -107.54948425292969, -85.68534851074219, -141.9537353515625, 9.932639122009277, -0.3861399292945862, -0.414031445980072, 3.7261810302734375, 21.86078643798828, 1.6488913297653198, 
380, 628446975, -104.887939453125, -85.7514877319336, -144.62391662597656, 9.950321197509766, -0.3927849531173706, -0.41036516427993774, 3.6763741970062256, 21.484729766845703, 1.5404022932052612, 
381, 628455308, -102.4574966430664, -85.78588104248047, -147.03262329101562, 9.931079864501953, -0.3979083299636841, -0.42307379841804504, 3.5809738636016846, 21.007986068725586, 1.6018892526626587, 
382, 628463641, -99.7908706665039, -85.83209228515625, -149.70742797851562, 9.939099311828613, -0.3866981267929077, -0.40736573934555054, 3.5440893173217773, 20.454845428466797, 1.6231237649917603, 
383, 628471974, -97.41542053222656, -85.84951782226562, -152.06150817871094, 9.913728713989258, -0.3933376371860504, -0.4112703502178192, 3.533254623413086, 19.874988555908203, 1.554323673248291, 
384, 628480307, -94.8131332397461, -85.87773895263672, -154.6681671142578, 9.915199279785156, -0.3963695466518402, -0.4277103543281555, 3.589963674545288, 19.263702392578125, 1.5897221565246582, 
385, 628488640, -92.55582427978516, -85.87925720214844, -156.90330505371094, 9.92464542388916, -0.40320998430252075, -0.4211719334125519, 3.537173271179199, 18.540895462036133, 1.6380820274353027, 
386, 628496973, -90.07028198242188, -85.89253997802734, -159.39601135253906, 9.927221298217773, -0.3833816945552826, -0.41550591588020325, 3.5262231826782227, 18.01353645324707, 1.4840251207351685, 
387, 628505306, -87.9538803100586, -85.88225555419922, -161.48965454101562, 9.8795747756958, -0.37825194001197815, -0.41885408759117126, 3.567218780517578, 17.32257652282715, 1.519385576248169, 
388, 628513639, -85.640625, -85.88134765625, -163.80918884277344, 9.889097213745117, -0.37730708718299866, -0.4034866988658905, 3.5672178268432617, 16.571182250976562, 1.5788872241973877, 
389, 628521972, -83.71800994873047, -85.86009979248047, -165.7086181640625, 9.882354736328125, -0.39303529262542725, -0.4254299998283386, 3.5683705806732178, 15.856878280639648, 1.608804702758789, 
390, 628530305, -81.61527252197266, -85.85018157958984, -167.81446838378906, 9.87360954284668, -0.3842342793941498, -0.41700080037117004, 3.4232277870178223, 14.993616104125977, 1.4879951477050781, 
391, 628538638, -79.91474914550781, -85.82299041748047, -169.49266052246094, 9.858946800231934, -0.3629475235939026, -0.4056699573993683, 3.4145572185516357, 14.228606224060059, 1.4768400192260742, 
392, 628546971, -78.04461669921875, -85.80558776855469, -171.36785888671875, 9.871830940246582, -0.37661153078079224, -0.42240703105926514, 3.501505136489868, 13.308428764343262, 1.5634804964065552, 
393, 628555304, -76.58203125, -85.77422332763672, -172.80738830566406, 9.867344856262207, -0.3921809196472168, -0.4270560145378113, 3.4423489570617676, 12.469088554382324, 1.505476951599121, 
394, 628563637, -74.93647766113281, -85.75407409667969, -174.4547119140625, 9.850797653198242, -0.3912983536720276, -0.4604524075984955, 3.458050012588501, 11.654912948608398, 1.4119335412979126, 
395, 628571970, -73.70816802978516, -85.72190856933594, -175.6597442626953, 9.857834815979004, -0.38772404193878174, -0.4197767376899719, 3.4113552570343018, 10.649913787841797, 1.424100399017334, 
396, 628580303, -72.30818176269531, -85.70089721679688, -177.06173706054688, 9.852766036987305, -0.393055260181427, -0.4452073574066162, 3.411227226257324, 9.770986557006836, 1.4098331928253174, 
397, 628588636, -71.30221557617188, -85.66993713378906, -178.04469299316406, 9.83382797241211, -0.39875543117523193, -0.4178432524204254, 3.3194518089294434, 8.848821640014648, 1.3840140104293823, 
398, 628596969, -70.14232635498047, -85.65148162841797, -179.20558166503906, 9.822220802307129, -0.3749324679374695, -0.40156763792037964, 3.35705304145813, 7.7867536544799805, 1.2922382354736328, 
399, 628605302, -69.36949920654297, -85.62449645996094, -179.95510864257812, 9.847027778625488, -0.3620942234992981, -0.4017714858055115, 3.277444362640381, 6.787107944488525, 1.289446473121643, 
400, 628613635, -68.4442367553711, -85.6090316772461, 179.1172637939453, 9.811135292053223, -0.39290037751197815, -0.44177842140197754, 3.1750380992889404, 5.812176704406738, 1.3861911296844482, 
401, 628621968, -67.8953628540039, -85.58651733398438, 178.5915069580078, 9.812955856323242, -0.3925732374191284, -0.44025108218193054, 3.182901382446289, 4.749314785003662, 1.3442351818084717, 
402, 628630301, -67.18814849853516, -85.57627868652344, 177.884765625, 9.820923805236816, -0.3775928318500519, -0.4487438201904297, 3.2483718395233154, 3.8197484016418457, 1.3258695602416992, 
403, 628638634, -66.8486099243164, -85.55975341796875, 177.56939697265625, 9.808753967285156, -0.38171663880348206, -0.4109765887260437, 3.21791672706604, 2.711369514465332, 1.327995777130127, 
404, 628646967, -66.36033630371094, -85.5566177368164, 177.0814666748047, 9.820239067077637, -0.3896489143371582, -0.442796528339386, 3.2449135780334473, 1.7311636209487915, 1.2783552408218384, 
405, 628655300, -66.21453094482422, -85.5464096069336, 176.95932006835938, 9.802481651306152, -0.3686447739601135, -0.4359264075756073, 3.104778528213501, 0.7721412181854248, 1.31180739402771, 
406, 628663633, -65.94819641113281, -85.55107116699219, 176.69435119628906, 9.795655250549316, -0.3915124535560608, -0.4497867822647095, 3.13032865524292, -0.43508341908454895, 1.2320833206176758, 
407, 628671966, -66.00791931152344, -85.54878234863281, 176.77809143066406, 9.797175407409668, -0.3856998085975647, -0.43923071026802063, 3.1065330505371094, -1.3756893873214722, 1.1965562105178833, 
408, 628680299, -65.9565658569336, -85.56147003173828, 176.72886657714844, 9.819026947021484, -0.3775359094142914, -0.4084729552268982, 3.133223056793213, -2.565342426300049, 1.1668692827224731, 
409, 628688632, -66.22247314453125, -85.56642150878906, 177.01853942871094, 9.794081687927246, -0.37002256512641907, -0.43258464336395264, 2.989949941635132, -3.4703571796417236, 1.1948273181915283, 
410, 628696965, -66.39408874511719, -85.58643341064453, 177.1929931640625, 9.835529327392578, -0.3998250961303711, -0.4597666263580322, 3.0654096603393555, -4.714697360992432, 1.1685726642608643, 
411, 628705298, -66.86851501464844, -85.59843444824219, 177.69351196289062, 9.822758674621582, -0.39173993468284607, -0.448990136384964, 3.1932880878448486, -5.5792412757873535, 1.1730166673660278, 
412, 628713631, -67.24234771728516, -85.6253890991211, 178.070556640625, 9.821234703063965, -0.3935456871986389, -0.4480721354484558, 2.986888885498047, -6.613519191741943, 1.094483494758606, 
413, 628721964, -67.9425048828125, -85.64401245117188, 178.79490661621094, 9.830942153930664, -0.3840104937553406, -0.41409483551979065, 2.889759063720703, -7.745334625244141, 1.119380235671997, 
414, 628730297, -68.53641510009766, -85.67718505859375, 179.39300537109375, 9.84595775604248, -0.39756402373313904, -0.4027669131755829, 3.056239604949951, -8.591259002685547, 1.0434216260910034, 
415, 628738630, -69.45182800292969, -85.7008056640625, -179.66705322265625, 9.828563690185547, -0.3891960382461548, -0.4287321865558624, 2.880500078201294, -9.711777687072754, 1.0667048692703247, 
416, 628746963, -70.2938003540039, -85.73836517333984, -178.82177734375, 9.847289085388184, -0.3778254985809326, -0.42531725764274597, 2.9049360752105713, -10.645417213439941, 1.1015658378601074, 
417, 628755296, -71.4257583618164, -85.76473999023438, -177.66378784179688, 9.83855152130127, -0.37500253319740295, -0.4108603000640869, 3.0013997554779053, -11.546731948852539, 1.0576375722885132, 
418, 628763629, -72.52284240722656, -85.80535125732422, -176.56356811523438, 9.834917068481445, -0.4000033140182495, -0.41417044401168823, 2.9153358936309814, -12.642202377319336, 1.0954184532165527, 
419, 628771962, -73.90762329101562, -85.83303833007812, -175.15255737304688, 9.843557357788086, -0.4064217805862427, -0.40474605560302734, 2.9219703674316406, -13.560423851013184, 1.0794098377227783, 
420, 628780295, -75.25563049316406, -85.87507629394531, -173.80067443847656, 9.85684871673584, -0.38024428486824036, -0.42032086849212646, 2.8325250148773193, -14.472006797790527, 0.9507749080657959, 
421, 628788628, -76.87933349609375, -85.90203094482422, -172.15098571777344, 9.8548583984375, -0.3912334144115448, -0.4038791060447693, 2.8645429611206055, -15.34273910522461, 0.9642737507820129, 
422, 628796961, -78.4812240600586, -85.94208526611328, -170.54513549804688, 9.870512962341309, -0.3780805766582489, -0.4404352903366089, 2.9084203243255615, -16.17228126525879, 0.914044201374054, 
423, 628805294, -80.35079956054688, -85.96454620361328, -168.6490478515625, 9.864419937133789, -0.39264148473739624, -0.4272969961166382, 2.86295485496521, -17.067615509033203, 1.0022852420806885, 
424, 628813627, -82.2006607055664, -85.99982452392578, -166.7941436767578, 9.894200325012207, -0.4005213975906372, -0.4153071641921997, 2.6497933864593506, -17.718894958496094, 0.8739067316055298, 
425, 628821960, -84.2874755859375, -86.0157241821289, -164.6809844970703, 9.895039558410645, -0.40180546045303345, -0.4397592842578888, 2.8175151348114014, -18.551074981689453, 0.8770828247070312, 
426, 628830293, -86.3879165649414, -86.04235076904297, -162.5746307373047, 9.88697624206543, -0.3824920356273651, -0.41165268421173096, 2.790095567703247, -19.309377670288086, 0.9275045990943909, 
427, 628838626, -88.69019317626953, -86.04755401611328, -160.24581909179688, 9.902077674865723, -0.3982261121273041, -0.4297841787338257, 2.7735743522644043, -20.0794677734375, 0.9143644571304321, 
428, 628846959, -91.01592254638672, -86.06219482421875, -157.9169921875, 9.899649620056152, -0.3833845257759094, -0.4337942600250244, 2.7107810974121094, -20.794679641723633, 0.9387363791465759, 
429, 628855292, -93.49585723876953, -86.0529556274414, -155.41091918945312, 9.898240089416504, -0.3928566873073578, -0.4100760519504547, 2.712881565093994, -21.50225067138672, 0.9884025454521179, 
430, 628863625, -95.97322845458984, -86.05419921875, -152.9285125732422, 9.90688419342041, -0.3869863748550415, -0.41006797552108765, 2.7245230674743652, -21.92448616027832, 0.8350114822387695, 
431, 628871958, -98.55967712402344, -86.02931213378906, -150.31536865234375, 9.920199394226074, -0.3897838592529297, -0.39685988426208496, 2.7248945236206055, -22.65071678161621, 0.9350992441177368, 
432, 628880291, -101.15178680419922, -86.0121841430664, -147.71925354003906, 9.945160865783691, -0.39313992857933044, -0.4104907810688019, 2.6596298217773438, -23.121097564697266, 0.9719838500022888, 
433, 628888624, -103.77471923828125, -85.96978759765625, -145.07012939453125, 9.953506469726562, -0.37889501452445984, -0.40906354784965515, 2.6595914363861084, -23.599149703979492, 0.8765323758125305, 
434, 628896957, -106.40859985351562, -85.93485260009766, -142.43287658691406, 9.96033000946045, -0.3918371796607971, -0.4143230617046356, 2.7458853721618652, -24.104310989379883, 0.8488945364952087, 
435, 628905290, -109.0152359008789, -85.87261199951172, -139.80032348632812, 9.952713012695312, -0.380795955657959, -0.38092151284217834, 2.615163564682007, -24.563613891601562, 0.9449352025985718, 
436, 628913623, -111.62504577636719, -85.81839752197266, -137.1961669921875, 9.964306831359863, -0.3920818865299225, -0.3960987627506256, 2.7304019927978516, -24.986221313476562, 0.8327191472053528, 
437, 628921956, -114.14144134521484, -85.73777770996094, -134.65281677246094, 9.960782051086426, -0.3865777850151062, -0.3994421064853668, 2.722205638885498, -25.25909423828125, 0.8820522427558899, 
438, 628930289, -116.66107940673828, -85.66487884521484, -132.13758850097656, 9.958563804626465, -0.366910845041275, -0.37958526611328125, 2.575589656829834, -25.660598754882812, 0.792991578578949, 
439, 628938622, -119.0384750366211, -85.5665054321289, -129.734130859375, 9.964426040649414, -0.39241352677345276, -0.41338008642196655, 2.629277467727661, -25.806013107299805, 0.8399169445037842, 
440, 628946955, -121.40093231201172, -85.47433471679688, -127.36917877197266, 9.978999137878418, -0.3845808804035187, -0.400516152381897, 2.552037239074707, -26.09935760498047, 0.9585235714912415, 
441, 628955288, -123.61597442626953, -85.3592758178711, -125.12845611572266, 9.990878105163574, -0.39907321333885193, -0.4155442416667938, 2.5175864696502686, -26.348329544067383, 0.8295559883117676, 
442, 628963621, -125.80082702636719, -85.25244903564453, -122.94146728515625, 9.970268249511719, -0.41320064663887024, -0.3680352568626404, 2.6135501861572266, -26.33574104309082, 0.8404292464256287, 
443, 628971954, -127.81383514404297, -85.12299346923828, -120.9021224975586, 9.984583854675293, -0.3903990089893341, -0.39308011531829834, 2.6041879653930664, -26.55644416809082, 0.8754565715789795, 
444, 628980287, -129.80799865722656, -85.00260925292969, -118.89978790283203, 9.986516952514648, -0.3984922766685486, -0.41759783029556274, 2.6480653285980225, -26.50372886657715, 0.8386234045028687, 
445, 628988620, -131.62428283691406, -84.86210632324219, -117.05768585205078, 9.998826026916504, -0.38603293895721436, -0.39497870206832886, 2.5348758697509766, -26.61630630493164, 0.7896233201026917, 
446, 628996953, -133.43246459960938, -84.73076629638672, -115.24456787109375, 10.00149917602539, -0.3794286251068115, -0.40365689992904663, 2.6112704277038574, -26.574743270874023, 0.7887395620346069, 
447, 629005286, -135.05274963378906, -84.58010864257812, -113.59902954101562, 9.99605655670166, -0.3901416063308716, -0.41668567061424255, 2.5153191089630127, -26.591392517089844, 0.8464483618736267, 
448, 629013619, -136.6677703857422, -84.44007110595703, -111.9824447631836, 10.006359100341797, -0.40568602085113525, -0.4032609164714813, 2.5360159873962402, -26.389738082885742, 0.8509054780006409, 
449, 629021952, -138.1003875732422, -84.28317260742188, -110.52306365966797, 9.991972923278809, -0.38093772530555725, -0.37524035573005676, 2.6769070625305176, -26.323896408081055, 0.8389564156532288, 
450, 629030285, -139.52828979492188, -84.13793182373047, -109.0695571899414, 10.020342826843262, -0.3871650993824005, -0.3919418156147003, 2.6141517162323, -25.9569149017334, 0.8861120939254761, 
451, 629038618, -140.7870635986328, -83.97754669189453, -107.78499603271484, 10.000553131103516, -0.3697822690010071, -0.4082936644554138, 2.5760767459869385, -25.821741104125977, 0.8317460417747498, 
452, 629046951, -142.06634521484375, -83.82854461669922, -106.48062133789062, 9.990677833557129, -0.3691888749599457, -0.4039077162742615, 2.585348606109619, -25.626928329467773, 0.7961676716804504, 
453, 629055284, -143.1647491455078, -83.66686248779297, -105.35519409179688, 10.004156112670898, -0.36731860041618347, -0.3605368733406067, 2.7412755489349365, -25.169511795043945, 0.8553494811058044, 
454, 629063617, -144.29026794433594, -83.51756286621094, -104.2040786743164, 10.003421783447266, -0.39677342772483826, -0.35289251804351807, 2.694350004196167, -24.87128448486328, 0.8016363382339478, 
455, 629071950, -145.2509765625, -83.3570785522461, -103.2181625366211, 9.985480308532715, -0.38158729672431946, -0.38617148995399475, 2.5491299629211426, -24.35601043701172, 0.8324629664421082, 
456, 629080283, -146.24118041992188, -83.20987701416016, -102.2042465209961, 9.989152908325195, -0.3802718222141266, -0.37287524342536926, 2.5008978843688965, -23.969079971313477, 0.8143537044525146, 
457, 629088616, -147.0762481689453, -83.05155181884766, -101.34331512451172, 10.001938819885254, -0.393496036529541, -0.37171417474746704, 2.675740957260132, -23.48048973083496, 0.8846392035484314, 
458, 629096949, -147.94212341308594, -82.90776824951172, -100.45256042480469, 9.993450164794922, -0.36717575788497925, -0.3746661841869354, 2.668466806411743, -22.993026733398438, 0.8876361846923828, 
459, 629105282, -148.666748046875, -82.75486755371094, -99.70216369628906, 9.990288734436035, -0.37906527519226074, -0.3529314696788788, 2.689751625061035, -22.340932846069336, 0.85321044921875, 
460, 629113615, -149.42002868652344, -82.6173095703125, -98.92424011230469, 9.968382835388184, -0.3694525957107544, -0.3567238748073578, 2.7034428119659424, -21.734968185424805, 0.9271972179412842, 
461, 629121948, -150.048095703125, -82.47008514404297, -98.27059173583984, 9.966718673706055, -0.378227174282074, -0.3783649802207947, 2.7150464057922363, -21.21523094177246, 0.8890577554702759, 
462, 629130281, -150.70933532714844, -82.33932495117188, -97.58474731445312, 9.97989559173584, -0.38843104243278503, -0.36796215176582336, 2.7400450706481934, -20.541545867919922, 0.9258396029472351, 
463, 629138614, -151.24705505371094, -82.20028686523438, -97.02167510986328, 9.998921394348145, -0.4006439745426178, -0.3558166027069092, 2.734179735183716, -19.82816505432129, 0.930347740650177, 
464, 629146947, -151.81944274902344, -82.07913208007812, -96.42505645751953, 9.984447479248047, -0.394077330827713, -0.3337858021259308, 2.722806692123413, -19.04923439025879, 0.9516841769218445, 
465, 629155280, -152.27674865722656, -81.95011138916016, -95.94270324707031, 9.994950294494629, -0.40395650267601013, -0.38725587725639343, 2.7743935585021973, -18.266719818115234, 0.9327296614646912, 
466, 629163613, -152.77145385742188, -81.83759307861328, -95.42352294921875, 9.959848403930664, -0.3835822641849518, -0.3309842050075531, 2.820345878601074, -17.690067291259766, 1.0526045560836792, 
467, 629171946, -153.15667724609375, -81.7182388305664, -95.01351165771484, 9.955392837524414, -0.39134493470191956, -0.36725226044654846, 2.772984743118286, -16.797842025756836, 1.0356988906860352, 
468, 629180279, -153.5841827392578, -81.61835479736328, -94.562744140625, 9.96147346496582, -0.4061249792575836, -0.37253883481025696, 2.7521088123321533, -15.94345474243164, 0.9676162600517273, 
469, 629188612, -153.90701293945312, -81.51115417480469, -94.21476745605469, 9.967779159545898, -0.37776973843574524, -0.33515116572380066, 2.8522863388061523, -15.097441673278809, 1.0023747682571411, 
470, 629196945, -154.27084350585938, -81.42398071289062, -93.82781982421875, 9.967246055603027, -0.392873615026474, -0.34947940707206726, 2.7825770378112793, -14.219014167785645, 0.9775673151016235, 
471, 629205278, -154.52981567382812, -81.33106994628906, -93.54476928710938, 9.946683883666992, -0.3843040466308594, -0.36183133721351624, 2.8199996948242188, -13.090733528137207, 1.0210859775543213, 
472, 629213611, -154.82876586914062, -81.2577133178711, -93.22245788574219, 9.962081909179688, -0.38885602355003357, -0.33947786688804626, 2.8750061988830566, -12.342835426330566, 1.0747606754302979, 
473, 629221944, -155.03369140625, -81.17766571044922, -92.9936752319336, 9.939433097839355, -0.3901126980781555, -0.36747604608535767, 2.84747052192688, -11.3204927444458, 1.077911138534546, 
474, 629230277, -155.2769317626953, -81.11929321289062, -92.7275161743164, 9.948927879333496, -0.3753599226474762, -0.3663150668144226, 2.8797831535339355, -10.375329971313477, 1.0793583393096924, 
475, 629238610, -155.4303436279297, -81.05355072021484, -92.5499496459961, 9.952516555786133, -0.3889739513397217, -0.3243524730205536, 2.9600067138671875, -9.393661499023438, 1.0932923555374146, 
476, 629246943, -155.61898803710938, -81.00993347167969, -92.33842468261719, 9.923480033874512, -0.3859576880931854, -0.38817134499549866, 2.9529757499694824, -8.427980422973633, 1.1556247472763062, 
477, 629255276, -155.71714782714844, -80.95951843261719, -92.21598052978516, 9.953570365905762, -0.3759104907512665, -0.3407653868198395, 3.0452640056610107, -7.309100151062012, 1.2055214643478394, 
478, 629263609, -155.85179138183594, -80.9317626953125, -92.05779266357422, 9.940317153930664, -0.37564656138420105, -0.33554258942604065, 3.0899219512939453, -6.377329349517822, 1.23055899143219, 
479, 629271942, -155.9065399169922, -80.8954086303711, -91.9794692993164, 9.921451568603516, -0.38609981536865234, -0.3522082567214966, 3.0148468017578125, -5.443396091461182, 1.2451592683792114, 
480, 629280275, -155.999267578125, -80.8837661743164, -91.8636703491211, 9.94710922241211, -0.38404810428619385, -0.37736067175865173, 3.103907585144043, -4.3542280197143555, 1.1378355026245117, 
481, 629288608, -156.0117950439453, -80.86395263671875, -91.82804870605469, 9.927473068237305, -0.37893226742744446, -0.3729093372821808, 3.0143346786499023, -3.3121895790100098, 1.1720819473266602, 
482, 629296941, -156.05337524414062, -80.86819458007812, -91.76360321044922, 9.936363220214844, -0.3928646147251129, -0.3455670177936554, 3.135054349899292, -2.3032448291778564, 1.2535350322723389, 
483, 629305274, -156.0186767578125, -80.86345672607422, -91.77481079101562, 9.934733390808105, -0.387921005487442, -0.3351970613002777, 3.151972770690918, -1.291316270828247, 1.2473748922348022, 
484, 629313607, -156.0146026611328, -80.88410949707031, -91.75698852539062, 9.927140235900879, -0.38294264674186707, -0.3316226899623871, 3.0938026905059814, -0.21144552528858185, 1.2556993961334229, 
485, 629321940, -155.93081665039062, -80.8954086303711, -91.81697082519531, 9.927138328552246, -0.3958236873149872, -0.3540918231010437, 3.2568373680114746, 0.8370604515075684, 1.3160722255706787, 
486, 629330273, -155.87786865234375, -80.93252563476562, -91.84722137451172, 9.917936325073242, -0.39441362023353577, -0.33805376291275024, 3.242518663406372, 1.8831969499588013, 1.2765237092971802, 
487, 629338606, -155.7466583251953, -80.95921325683594, -91.95561981201172, 9.929866790771484, -0.387460857629776, -0.3574489951133728, 3.2029449939727783, 2.887300729751587, 1.388304352760315, 
488, 629346939, -155.64398193359375, -81.01242065429688, -92.03705596923828, 9.926446914672852, -0.37138497829437256, -0.3241244852542877, 3.167353868484497, 3.9749960899353027, 1.3249729871749878, 
489, 629355272, -155.4646759033203, -81.05528259277344, -92.19309997558594, 9.947654724121094, -0.3923942744731903, -0.33712923526763916, 3.3296072483062744, 5.019071102142334, 1.3635867834091187, 
490, 629363605, -155.31349182128906, -81.12387084960938, -92.32186126708984, 9.957645416259766, -0.3922933340072632, -0.3503616750240326, 3.3334622383117676, 5.919500827789307, 1.3120123147964478, 
491, 629371938, -155.08233642578125, -81.18107604980469, -92.53018951416016, 9.934690475463867, -0.38016408681869507, -0.34074753522872925, 3.3630216121673584, 6.97275972366333, 1.4445151090621948, 
492, 629380271, -154.87005615234375, -81.2657699584961, -92.7209243774414, 9.952417373657227, -0.3856947720050812, -0.3555299639701843, 3.2773542404174805, 8.048030853271484, 1.4353833198547363, 
493, 629388604, -154.59103393554688, -81.33789825439453, -92.97856903076172, 9.938616752624512, -0.3954157531261444, -0.3784412741661072, 3.2355265617370605, 8.94196891784668, 1.3737813234329224, 
494, 629396937, -154.33033752441406, -81.43645477294922, -93.21839141845703, 9.938057899475098, -0.406842976808548, -0.3642817735671997, 3.2755231857299805, 9.852336883544922, 1.3422884941101074, 
495, 629405270, -153.9891815185547, -81.5218276977539, -93.53691101074219, 9.942261695861816, -0.3785979449748993, -0.3627628982067108, 3.430758237838745, 10.792083740234375, 1.483128309249878, 
496, 629413603, -153.65830993652344, -81.63392639160156, -93.8455581665039, 9.956334114074707, -0.38296636939048767, -0.35166826844215393, 3.5067551136016846, 11.735174179077148, 1.4794909954071045, 
497, 629421936, -153.24925231933594, -81.73233795166016, -94.23220825195312, 9.95551872253418, -0.3878174126148224, -0.35237544775009155, 3.491387367248535, 12.671555519104004, 1.5755444765090942, 
498, 629430269, -152.85595703125, -81.8568115234375, -94.6048812866211, 9.950324058532715, -0.3747459948062897, -0.3331995904445648, 3.3458988666534424, 13.408967018127441, 1.4717047214508057, 
499, 629438602, -152.3903350830078, -81.96681213378906, -95.04769134521484, 9.944730758666992, -0.3949287533760071, -0.3654867112636566, 3.566718339920044, 14.260047912597656, 1.4257267713546753, 
500, 629446935, -151.91973876953125, -82.10255432128906, -95.49665832519531, 9.963665008544922, -0.38685986399650574, -0.3593817949295044, 3.5407588481903076, 15.057175636291504, 1.5303996801376343, 
501, 629455268, -151.37937927246094, -82.22232055664062, -96.01575469970703, 9.95910358428955, -0.391696572303772, -0.36395010352134705, 3.4403505325317383, 15.779753684997559, 1.50995934009552, 
502, 629463601, -150.83201599121094, -82.36856079101562, -96.5419692993164, 9.996899604797363, -0.3984280824661255, -0.34975093603134155, 3.5091891288757324, 16.57537269592285, 1.468989372253418, 
503, 629471934, -150.20838928222656, -82.49726867675781, -97.14447784423828, 9.968597412109375, -0.3994309604167938, -0.38916605710983276, 3.474315643310547, 17.225961685180664, 1.5479966402053833, 
504, 629480267, -149.57054138183594, -82.65259552001953, -97.76087951660156, 9.973340034484863, -0.3968783915042877, -0.3810904026031494, 3.5587143898010254, 17.98870277404785, 1.4639050960540771, 
505, 629488600, -148.8597869873047, -82.78892517089844, -98.45072174072266, 9.987249374389648, -0.40523532032966614, -0.3760342597961426, 3.488173246383667, 18.515384674072266, 1.4982284307479858, 
506, 629496933, -148.1127471923828, -82.95054626464844, -99.17726135253906, 9.984369277954102, -0.4009026288986206, -0.3993314802646637, 3.493398904800415, 19.232404708862305, 1.6275290250778198, 
507, 629505266, -147.29611206054688, -83.09320068359375, -99.97281646728516, 10.002737045288086, -0.39249923825263977, -0.39908331632614136, 3.5510053634643555, 19.750350952148438, 1.5252771377563477, 
508, 629513599, -146.43736267089844, -83.25959777832031, -100.81121826171875, 9.988554954528809, -0.392267644405365, -0.347003310918808, 3.5065133571624756, 20.281333923339844, 1.6271191835403442, 
509, 629521932, -145.50244140625, -83.4059066772461, -101.72576141357422, 9.979913711547852, -0.3801431953907013, -0.39924630522727966, 3.5044641494750977, 20.76372718811035, 1.6013258695602417, 
510, 629530265, -144.51275634765625, -83.5757827758789, -102.69522094726562, 10.000533103942871, -0.3989342749118805, -0.39879775047302246, 3.502568483352661, 21.25984764099121, 1.651990532875061, 
511, 629538598, -143.4408416748047, -83.72471618652344, -103.74549865722656, 9.994531631469727, -0.3894685208797455, -0.3972342908382416, 3.6747093200683594, 21.723350524902344, 1.6378132104873657, 
512, 629546931, -142.30218505859375, -83.89574432373047, -104.86305236816406, 9.99544906616211, -0.37412917613983154, -0.38481247425079346, 3.6429603099823, 22.091442108154297, 1.665284514427185, 
513, 629555264, -141.08529663085938, -84.0439224243164, -106.05827331542969, 9.997753143310547, -0.368404746055603, -0.39488381147384644, 3.7079954147338867, 22.356704711914062, 1.678604006767273, 
514, 629563597, -139.7726593017578, -84.21466827392578, -107.35000610351562, 9.993293762207031, -0.40526339411735535, -0.39512747526168823, 3.7051782608032227, 22.885150909423828, 1.6840087175369263, 
515, 629571930, -138.38465881347656, -84.36184692382812, -108.7170639038086, 9.992012977600098, -0.3937309682369232, -0.3814410865306854, 3.635340452194214, 23.099990844726562, 1.653643012046814, 
516, 629580263, -136.90916442871094, -84.52796936035156, -110.17098236083984, 9.99269962310791, -0.38279327750205994, -0.3854624629020691, 3.554476022720337, 23.10944175720215, 1.581871747970581, 
517, 629588596, -135.34658813476562, -84.67028045654297, -111.71195220947266, 9.97751522064209, -0.3935914635658264, -0.3900390565395355, 3.724734306335449, 23.42954444885254, 1.599520206451416, 
518, 629596929, -133.65870666503906, -84.83078002929688, -113.38104248046875, 9.989948272705078, -0.37383124232292175, -0.4076208472251892, 3.5617001056671143, 23.55513572692871, 1.619038462638855, 
519, 629605262, -131.89559936523438, -84.96549987792969, -115.12308502197266, 9.973776817321777, -0.3925911486148834, -0.37514275312423706, 3.6720075607299805, 23.675046920776367, 1.648763656616211, 
520, 629613595, -129.979248046875, -85.11685180664062, -117.01480102539062, 9.997759819030762, -0.37030455470085144, -0.3550671637058258, 3.724952220916748, 23.747814178466797, 1.6767598390579224, 
521, 629621928, -128.0114288330078, -85.24156951904297, -118.96160888671875, 9.980265617370605, -0.3970411419868469, -0.39328986406326294, 3.6240575313568115, 23.715078353881836, 1.6314226388931274, 
522, 629630261, -125.87248992919922, -85.38068389892578, -121.08550262451172, 9.99313735961914, -0.3702378571033478, -0.3968290686607361, 3.619011163711548, 23.661544799804688, 1.6752228736877441, 
523, 629638594, -123.67279052734375, -85.4922866821289, -123.26326751708984, 10.002518653869629, -0.3663736879825592, -0.39417457580566406, 3.7663192749023438, 23.759109497070312, 1.7561639547348022, 
524, 629646927, -121.28902435302734, -85.6176528930664, -125.62529754638672, 9.974967956542969, -0.3838437795639038, -0.40573522448539734, 3.6972885131835938, 23.6601619720459, 1.625505805015564, 
525, 629655260, -118.90493774414062, -85.71412658691406, -127.98845672607422, 9.964311599731445, -0.3858846426010132, -0.4188575744628906, 3.628796339035034, 23.385038375854492, 1.6317298412322998, 
526, 629663593, -116.31802368164062, -85.82078552246094, -130.55421447753906, 9.97218132019043, -0.3781577944755554, -0.38674312829971313, 3.555180072784424, 23.156147003173828, 1.7026045322418213, 
527, 629671926, -113.75511169433594, -85.90003204345703, -133.09629821777344, 9.976997375488281, -0.37142542004585266, -0.40566447377204895, 3.6109426021575928, 23.01122283935547, 1.5989693403244019, 
528, 629680259, -110.97970581054688, -85.98844146728516, -135.84609985351562, 9.960694313049316, -0.3879074156284332, -0.3886226415634155, 3.736170768737793, 22.750905990600586, 1.6158746480941772, 
529, 629688592, -108.29380798339844, -86.0479965209961, -138.5099334716797, 9.963757514953613, -0.38764655590057373, -0.404690146446228, 3.724055767059326, 22.33769989013672, 1.638210415840149, 
530, 629696925, -105.41111755371094, -86.11516571044922, -141.38235473632812, 9.945588111877441, -0.3748125731945038, -0.40102121233940125, 3.6279501914978027, 21.957605361938477, 1.5923861265182495, 
531, 629705258, -102.66567993164062, -86.1548843383789, -144.10670471191406, 9.934009552001953, -0.3690517246723175, -0.38615089654922485, 3.601222515106201, 21.562341690063477, 1.6154265403747559, 
532, 629713591, -99.71995544433594, -86.20213317871094, -147.03025817871094, 9.937060356140137, -0.3781622648239136, -0.4110124409198761, 3.6368513107299805, 21.229021072387695, 1.531385898590088, 
533, 629721924, -96.98799896240234, -86.22327423095703, -149.74093627929688, 9.945183753967285, -0.39271610975265503, -0.4114953577518463, 3.604461669921875, 20.65030288696289, 1.5120855569839478, 
534, 629730257, -94.09109497070312, -86.24934387207031, -152.615478515625, 9.942779541015625, -0.37822839617729187, -0.4214344024658203, 3.5547704696655273, 20.095911026000977, 1.5757369995117188, 
535, 629738590, -91.45282745361328, -86.25096130371094, -155.23252868652344, 9.91215705871582, -0.38617366552352905, -0.38766324520111084, 3.5399909019470215, 19.54328155517578, 1.709417700767517, 
536, 629746923, -88.66529846191406, -86.258544921875, -157.998779296875, 9.935263633728027, -0.39047321677207947, -0.44115573167800903, 3.5084595680236816, 18.9880428314209, 1.6323699951171875, 
537, 629755256, -86.17117309570312, -86.24657440185547, -160.47122192382812, 9.907590866088867, -0.38786572217941284, -0.3971380591392517, 3.5408873558044434, 18.45454978942871, 1.4882899522781372, 
538, 629763589, -83.56381225585938, -86.23932647705078, -163.05715942382812, 9.907354354858398, -0.40049031376838684, -0.41209226846694946, 3.500903606414795, 17.6911678314209, 1.5065017938613892, 
539, 629771922, -81.29212188720703, -86.2140121459961, -165.3070068359375, 9.891764640808105, -0.38300827145576477, -0.41943350434303284, 3.514709949493408, 17.024019241333008, 1.6037590503692627, 
540, 629780255, -78.90824127197266, -86.19451141357422, -167.66880798339844, 9.894391059875488, -0.40235796570777893, -0.4085979163646698, 3.459228277206421, 16.319215774536133, 1.602734088897705, 
541, 629788588, -76.8778076171875, -86.16089630126953, -169.6770477294922, 9.889989852905273, -0.3873256742954254, -0.44583114981651306, 3.509483814239502, 15.561930656433105, 1.5028129816055298, 
542, 629796921, -74.74785614013672, -86.13416290283203, -171.7853240966797, 9.876749038696289, -0.37084782123565674, -0.4376985430717468, 3.392606019973755, 14.758925437927246, 1.4249968528747559, 
543, 629805254, -72.98431396484375, -86.09515380859375, -173.5266876220703, 9.889483451843262, -0.386330783367157, -0.4117085039615631, 3.459228277206421, 13.905943870544434, 1.4849852323532104, 
544, 629813587, -71.10431671142578, -86.062744140625, -175.3837890625, 9.865128517150879, -0.3799050748348236, -0.45691603422164917, 3.4414265155792236, 13.274168968200684, 1.5371615886688232, 
545, 629821920, -69.59756469726562, -86.02162170410156, -176.86863708496094, 9.855937957763672, -0.37201493978500366, -0.4394702911376953, 3.3785438537597656, 12.242069244384766, 1.4370357990264893, 
546, 629830253, -68.00086212158203, -85.98838806152344, -178.44229125976562, 9.852217674255371, -0.39681747555732727, -0.38601526618003845, 3.436457395553589, 11.344340324401855, 1.4487156867980957, 
547, 629838586, -66.75128173828125, -85.94768524169922, -179.66995239257812, 9.867509841918945, -0.38651159405708313, -0.41887640953063965, 3.3028790950775146, 10.441030502319336, 1.4585258960723877, 
548, 629846919, -65.41565704345703, -85.91596984863281, 179.01736450195312, 9.82819938659668, -0.3859630823135376, -0.43197429180145264, 3.3290822505950928, 9.478137969970703, 1.462188720703125, 
549, 629855252, -64.40033721923828, -85.87849426269531, 178.0238800048828, 9.830665588378906, -0.38666146993637085, -0.41954365372657776, 3.2568247318267822, 8.625185012817383, 1.3824774026870728, 
550, 629863585, -63.30373764038086, -85.85037231445312, 176.95046997070312, 9.826886177062988, -0.36874446272850037, -0.41931992769241333, 3.326725721359253, 7.608887195587158, 1.4300428628921509, 
551, 629871918, -62.51642990112305, -85.8176498413086, 176.1866455078125, 9.838825225830078, -0.41246604919433594, -0.4407021701335907, 3.3733954429626465, 6.710060119628906, 1.3968724012374878, 
552, 629880251, -61.647308349609375, -85.79569244384766, 175.3413848876953, 9.830303192138672, -0.39195600152015686, -0.4205532670021057, 3.342298984527588, 5.644019603729248, 1.3410077095031738, 
553, 629888584, -61.08266067504883, -85.77070617675781, 174.79962158203125, 9.816985130310059, -0.3762063682079315, -0.42310333251953125, 3.222783327102661, 4.63563871383667, 1.3067615032196045, 
554, 629896917, -60.434471130371094, -85.75536346435547, 174.17489624023438, 9.829033851623535, -0.3869401812553406, -0.4524453580379486, 3.2665066719055176, 3.6472370624542236, 1.351611852645874, 
555, 629905250, -60.069828033447266, -85.73731994628906, 173.8337860107422, 9.81381607055664, -0.39705201983451843, -0.44225892424583435, 3.2432234287261963, 2.6999456882476807, 1.320926308631897, 
556, 629913583, -59.63031005859375, -85.73079681396484, 173.41851806640625, 9.82593822479248, -0.3860069811344147, -0.41114264726638794, 3.253455638885498, 1.6200103759765625, 1.3197605609893799, 
557, 629921916, -59.47134017944336, -85.72180938720703, 173.2827606201172, 9.81835651397705, -0.3648673892021179, -0.4046715199947357, 3.14418625831604, 0.5758208632469177, 1.2552129030227661, 
558, 629930249, -59.229515075683594, -85.72447204589844, 173.0647430419922, 9.797039985656738, -0.38084834814071655, -0.430350124835968, 3.1433019638061523, -0.3882477581501007, 1.2341705560684204, 
559, 629938582, -59.27506637573242, -85.72492980957031, 173.1342010498047, 9.817911148071289, -0.3747030794620514, -0.43619129061698914, 3.161872148513794, -1.580334186553955, 1.215702772140503, 
560, 629946915, -59.23939895629883, -85.73685455322266, 173.12289428710938, 9.804460525512695, -0.3860384225845337, -0.46541428565979004, 3.1525235176086426, -2.4907925128936768, 1.1955444812774658, 
561, 629955248, -59.47477340698242, -85.7469711303711, 173.3828125, 9.797622680664062, -0.3830083906650543, -0.4317084550857544, 3.171170711517334, -3.6150271892547607, 1.1111711263656616, 
562, 629963581, -59.652217864990234, -85.76876068115234, 173.5843963623047, 9.826584815979004, -0.3853103220462799, -0.4055432081222534, 3.0597481727600098, -4.635498046875, 1.1313039064407349, 
563, 629971914, -60.08831024169922, -85.78629302978516, 174.04489135742188, 9.815320014953613, -0.37720388174057007, -0.4226970970630646, 3.0809569358825684, -5.587527275085449, 1.193187952041626, 
564, 629980247, -60.464115142822266, -85.81568145751953, 174.4441680908203, 9.818451881408691, -0.3910273015499115, -0.4173821210861206, 2.953141927719116, -6.514225482940674, 1.1219547986984253, 
565, 629988580, -61.10161590576172, -85.84066009521484, 175.1056365966797, 9.823269844055176, -0.39495426416397095, -0.4619634747505188, 2.978013277053833, -7.5137434005737305, 1.1785365343093872, 
566, 629996913, -61.703548431396484, -85.87906646728516, 175.73114013671875, 9.826415061950684, -0.37071511149406433, -0.40223363041877747, 2.879603862762451, -8.600275039672852, 1.0135810375213623, 
567, 630005246, -62.56367111206055, -85.91150665283203, 176.61520385742188, 9.862654685974121, -0.3759538233280182, -0.41364288330078125, 2.924147129058838, -9.554788589477539, 1.0704957246780396, 
568, 630013579, -63.39572525024414, -85.95542907714844, 177.47195434570312, 9.835000038146973, -0.37531566619873047, -0.42253050208091736, 2.9517335891723633, -10.454873085021973, 1.092037320137024, 
569, 630021912, -64.48419952392578, -85.99308013916016, 178.58468627929688, 9.845539093017578, -0.38204053044319153, -0.43090465664863586, 2.884854555130005, -11.421067237854004, 1.0453170537948608, 
570, 630030245, -65.56987762451172, -86.04186248779297, 179.69419860839844, 9.833179473876953, -0.373558908700943, -0.4142983853816986, 2.830526828765869, -12.37063980102539, 1.0459061861038208, 
571, 630038578, -66.91583251953125, -86.08313751220703, -178.93528747558594, 9.839309692382812, -0.3957616090774536, -0.4282568097114563, 2.871842861175537, -13.353484153747559, 0.9883766174316406, 
572, 630046911, -68.28746032714844, -86.13517761230469, -177.5383758544922, 9.869547843933105, -0.4014914035797119, -0.4153817892074585, 2.91420841217041, -14.337095260620117, 1.044087529182434, 
573, 630055244, -69.90359497070312, -86.17643737792969, -175.89793395996094, 9.850236892700195, -0.38581183552742004, -0.407345712184906, 2.809600353240967, -15.129883766174316, 1.0325355529785156, 
574, 630063577, -71.54789733886719, -86.2288818359375, -174.22848510742188, 9.879352569580078, -0.39407891035079956, -0.44977930188179016, 2.848457098007202, -15.98965072631836, 0.9172459840774536, 
575, 630071910, -73.43658447265625, -86.2686538696289, -172.31570434570312, 9.888458251953125, -0.40164995193481445, -0.4138852655887604, 2.710806131362915, -16.78059196472168, 0.946779191493988, 
576, 630080243, -75.37303924560547, -86.31671142578125, -170.35464477539062, 9.885405540466309, -0.4118931293487549, -0.4148966670036316, 2.7854719161987305, -17.55596160888672, 0.9796167016029358, 
577, 630088576, -77.53114318847656, -86.35073852539062, -168.1704864501953, 9.897089958190918, -0.3805297017097473, -0.43383312225341797, 2.892436981201172, -18.272520065307617, 0.9447299838066101, 
578, 630096909, -79.76448059082031, -86.39260864257812, -165.91229248046875, 9.889385223388672, -0.39765292406082153, -0.39417773485183716, 2.7545814514160156, -19.100757598876953, 0.8976510167121887, 
579, 630105242, -82.19955444335938, -86.41832733154297, -163.45216369628906, 9.909501075744629, -0.39650818705558777, -0.41867366433143616, 2.736292839050293, -19.787708282470703, 0.8453468680381775, 
580, 630113575, -84.71904754638672, -86.44873809814453, -160.90774536132812, 9.914026260375977, -0.39386940002441406, -0.4093196988105774, 2.728147506713867, -20.540815353393555, 0.9939351081848145, 
581, 630121908, -87.3846664428711, -86.46121978759766, -158.21682739257812, 9.901606559753418, -0.38739606738090515, -0.3932664394378662, 2.7260210514068604, -21.04851531982422, 0.8761351704597473, 
582, 630130241, -90.13211059570312, -86.4774169921875, -155.4437713623047, 9.922468185424805, -0.38266661763191223, -0.37952950596809387, 2.790621042251587, -21.75260353088379, 0.9284653067588806, 
583, 630138574, -92.97088623046875, -86.47352600097656, -152.58004760742188, 9.929278373718262, -0.3911150097846985, -0.4128350615501404, 2.6753053665161133, -22.157920837402344, 0.8734200596809387, 
584, 630146907, -95.88080596923828, -86.47274780273438, -149.64418029785156, 9.95205020904541, -0.3969680666923523, -0.4043204188346863, 2.604098081588745, -22.791366577148438, 0.8500344157218933, 
585, 630155240, -98.84928131103516, -86.45005798339844, -146.6503448486328, 9.941445350646973, -0.3675804138183594, -0.4398023784160614, 2.665034294128418, -23.366531372070312, 0.8514431715011597, 
586, 630163573, -101.85128021240234, -86.429931640625, -143.6220245361328, 9.950594902038574, -0.39001214504241943, -0.42234042286872864, 2.678609609603882, -23.786962509155273, 0.771808385848999, 
587, 630171906, -104.83318328857422, -86.38600158691406, -140.61463928222656, 9.930438995361328, -0.388997882604599, -0.399967759847641, 2.676100254058838, -24.240598678588867, 0.8893779516220093, 
588, 630180239, -107.82948303222656, -86.34355926513672, -137.597412109375, 9.952284812927246, -0.40019917488098145, -0.3870674967765808, 2.7107045650482178, -24.628087997436523, 0.8337950110435486, 
589, 630188572, -110.73011016845703, -86.27985382080078, -134.67166137695312, 9.965418815612793, -0.3955105245113373, -0.3964392840862274, 2.5816855430603027, -24.875778198242188, 0.7713730931282043, 
590, 630196905, -113.6226806640625, -86.21534729003906, -131.7552032470703, 9.960613250732422, -0.38508298993110657, -0.38489919900894165, 2.586014747619629, -25.2605037689209, 0.9397099018096924, 
591, 630205238, -116.3805923461914, -86.1311264038086, -128.9712371826172, 9.953685760498047, -0.4075436592102051, -0.4032123386859894, 2.6917502880096436, -25.507858276367188, 0.7374854683876038, 
592, 630213571, -119.11590576171875, -86.04700469970703, -126.21025848388672, 9.986625671386719, -0.38273870944976807, -0.4042738378047943, 2.742441177368164, -25.820716857910156, 0.8321557641029358, 
593, 630221904, -121.6601791381836, -85.94334411621094, -123.64051055908203, 9.951278686523438, -0.39780211448669434, -0.3995559513568878, 2.6490771770477295, -25.89448356628418, 0.8241898417472839, 
594, 630230237, -124.1771469116211, -85.84075164794922, -121.09574127197266, 9.972555160522461, -0.3926430642604828, -0.379940927028656, 2.6129095554351807, -26.129058837890625, 0.8472937345504761, 
595, 630238570, -126.48602294921875, -85.72176361083984, -118.76170349121094, 9.971667289733887, -0.39397966861724854, -0.40427297353744507, 2.5554568767547607, -26.098678588867188, 0.7403798699378967, 
596, 630246903, -128.76368713378906, -85.60488891601562, -116.45939636230469, 9.985807418823242, -0.400754451751709, -0.37629008293151855, 2.568904399871826, -26.21893882751465, 0.7581562399864197, 
597, 630255236, -130.83363342285156, -85.47174072265625, -114.36370849609375, 10.002694129943848, -0.3706413507461548, -0.3725886940956116, 2.6464130878448486, -26.28438377380371, 0.7533151507377625, 
598, 630263569, -132.8631134033203, -85.34225463867188, -112.31007385253906, 9.980947494506836, -0.3876325190067291, -0.3781948685646057, 2.636474609375, -26.177980422973633, 0.7878431677818298, 
599, 630271902, -134.6880645751953, -85.19911193847656, -110.45970916748047, 9.993446350097656, -0.38752037286758423, -0.36730051040649414, 2.5789194107055664, -26.146934509277344, 0.7628435492515564, 
600, 630280235, -136.4792938232422, -85.05961608886719, -108.64283752441406, 9.985564231872559, -0.3875238299369812, -0.38237661123275757, 2.698538064956665, -26.035232543945312, 0.8787224292755127, 
601, 630288568, -138.0699005126953, -84.90926361083984, -107.02666473388672, 9.999042510986328, -0.3777671158313751, -0.38360652327537537, 2.644876480102539, -25.785751342773438, 0.7951688170433044, 
602, 630296901, -139.64895629882812, -84.7638168334961, -105.4237289428711, 9.980521202087402, -0.3758372962474823, -0.3880975544452667, 2.534069061279297, -25.673254013061523, 0.8204244375228882, 
603, 630305234, -141.04571533203125, -84.60711669921875, -104.0023193359375, 9.99755573272705, -0.40247610211372375, -0.40165019035339355, 2.5405492782592773, -25.588621139526367, 0.8491123914718628, 
604, 630313567, -142.43055725097656, -84.4580078125, -102.59354400634766, 9.991226196289062, -0.40783146023750305, -0.3813563585281372, 2.5525624752044678, -25.17000961303711, 0.7960396409034729, 
605, 630321900, -143.63211059570312, -84.30103302001953, -101.36737060546875, 9.990823745727539, -0.3990693986415863, -0.36949044466018677, 2.5407028198242188, -24.761228561401367, 0.842119574546814, 
