sep=,
PacketCounter,SampleTimeFine,Euler_X,Euler_Y,Euler_Z,Acc_X,Acc_Y,Acc_Z,Gyr_X,Gyr_Y,Gyr_Z,
0, 1330469364, 91.25288391113281, -37.74026107788086, -53.68345642089844, 0, 0, 0, 0, 0, 0, 
1, 1330477697, 91.28691101074219, -37.7503662109375, -53.695152282714844, 6.02345609664917, 7.804612159729004, -0.1972765177488327, 3.224461078643799, -1.0819965600967407, 1.2376415729522705, 
2, 1330486030, 91.34256744384766, -37.74846649169922, -53.67695999145508, 6.028526306152344, 7.818124294281006, -0.18727627396583557, 3.2343220710754395, -1.0819708108901978, 1.2540345191955566, 
3, 1330494363, 91.37797546386719, -37.758705139160156, -53.69013214111328, 6.020721435546875, 7.798667907714844, -0.1881457418203354, 3.2833988666534424, -1.2196985483169556, 1.25751793384552, 
4, 1330502696, 91.42733764648438, -37.74936294555664, -53.68410110473633, 6.020316123962402, 7.802939414978027, -0.19851550459861755, 3.152254343032837, -1.3113720417022705, 1.2741672992706299, 
5, 1330511029, 91.46314239501953, -37.75905990600586, -53.697731018066406, 6.021655559539795, 7.792637348175049, -0.19949190318584442, 3.2931833267211914, -1.2624998092651367, 1.1952754259109497, 
6, 1330519362, 91.5091323852539, -37.75196075439453, -53.71925735473633, 6.04684591293335, 7.815323352813721, -0.18986716866493225, 3.209399461746216, -1.4771472215652466, 1.2139226198196411, 
7, 1330527695, 91.54412078857422, -37.76254653930664, -53.73316192626953, 6.031775951385498, 7.825077533721924, -0.2039845883846283, 3.1768689155578613, -1.2850403785705566, 1.3036234378814697, 
8, 1330536028, 91.5809097290039, -37.75942611694336, -53.72777557373047, 6.011215686798096, 7.8093414306640625, -0.19759319722652435, 3.196387529373169, -1.4276862144470215, 1.3039822578430176, 
9, 1330544361, 91.61753845214844, -37.76933288574219, -53.74457931518555, 6.01633358001709, 7.8209757804870605, -0.1952672004699707, 3.1601176261901855, -1.5622888803482056, 1.2339528799057007, 
10, 1330552694, 91.64720916748047, -37.76386642456055, -53.769927978515625, 6.0342607498168945, 7.828917503356934, -0.1948399841785431, 3.0798425674438477, -1.6060893535614014, 1.3391250371932983, 
11, 1330561027, 91.68268585205078, -37.77334213256836, -53.787052154541016, 6.037642002105713, 7.817009925842285, -0.15583109855651855, 2.999337673187256, -1.5901575088500977, 1.185106635093689, 
12, 1330569360, 91.70201110839844, -37.77041244506836, -53.780338287353516, 6.03883695602417, 7.817329406738281, -0.20818515121936798, 3.0125794410705566, -1.6731984615325928, 1.3378442525863647, 
13, 1330577693, 91.73836517333984, -37.77999496459961, -53.7976188659668, 6.029306411743164, 7.798088550567627, -0.18178346753120422, 3.092777967453003, -1.6050134897232056, 1.1997579336166382, 
14, 1330586026, 91.75704193115234, -37.77965545654297, -53.80513000488281, 6.028990268707275, 7.810063362121582, -0.15198324620723724, 3.1092734336853027, -1.6244291067123413, 1.2621029615402222, 
15, 1330594359, 91.79243469238281, -37.79008483886719, -53.822235107421875, 6.010213851928711, 7.816004276275635, -0.18261776864528656, 2.989732265472412, -1.5830878019332886, 1.3014978170394897, 
16, 1330602692, 91.80477142333984, -37.78912353515625, -53.81133270263672, 6.031744480133057, 7.78026008605957, -0.1560186892747879, 3.083159923553467, -1.4837555885314941, 1.1992071866989136, 
17, 1330611025, 91.8399429321289, -37.799591064453125, -53.827110290527344, 6.031313419342041, 7.795499324798584, -0.17009906470775604, 3.062143325805664, -1.4552983045578003, 1.302394151687622, 
18, 1330619358, 91.84891510009766, -37.800479888916016, -53.81889343261719, 6.032901287078857, 7.805782318115234, -0.13291840255260468, 3.0813281536102295, -1.4434133768081665, 1.0792940855026245, 
19, 1330627691, 91.88410949707031, -37.81044387817383, -53.834720611572266, 6.035914897918701, 7.813583850860596, -0.16337460279464722, 3.058710813522339, -1.4604722261428833, 1.2450438737869263, 
20, 1330636024, 91.8895034790039, -37.81321334838867, -53.835296630859375, 6.042923927307129, 7.803733825683594, -0.12591885030269623, 3.1541244983673096, -1.2920589447021484, 1.2094402313232422, 
21, 1330644357, 91.92400360107422, -37.82318878173828, -53.85018539428711, 6.029631614685059, 7.804377555847168, -0.13977403938770294, 3.0441877841949463, -1.3719497919082642, 1.2446085214614868, 
22, 1330652690, 91.92625427246094, -37.826927185058594, -53.83452606201172, 6.029117107391357, 7.803109169006348, -0.15538795292377472, 3.0918049812316895, -1.316392421722412, 1.2294193506240845, 
23, 1330661023, 91.96070861816406, -37.83705520629883, -53.847023010253906, 6.0360798835754395, 7.807631969451904, -0.14360378682613373, 3.2152655124664307, -1.144444227218628, 1.2542139291763306, 
24, 1330669356, 91.9615249633789, -37.840633392333984, -53.832359313964844, 6.041073322296143, 7.7935943603515625, -0.15004117786884308, 3.090549945831299, -1.0954952239990234, 1.1673561334609985, 
25, 1330677689, 91.99406433105469, -37.8510856628418, -53.84315872192383, 6.044363975524902, 7.817997932434082, -0.1603008210659027, 3.109248161315918, -0.9816145300865173, 1.2911497354507446, 
26, 1330686022, 91.99567413330078, -37.85526657104492, -53.83873748779297, 6.05668830871582, 7.814840316772461, -0.17214886844158173, 3.047773838043213, -1.1625789403915405, 1.1745280027389526, 
27, 1330694355, 92.02963256835938, -37.865379333496094, -53.850364685058594, 6.03436279296875, 7.823318958282471, -0.15635570883750916, 3.2204649448394775, -1.0592511892318726, 1.250294804573059, 
28, 1330702688, 92.03289794921875, -37.87007141113281, -53.846649169921875, 6.0502777099609375, 7.810902118682861, -0.17192336916923523, 3.1365787982940674, -1.1132971048355103, 1.2231183052062988, 
29, 1330711021, 92.06602478027344, -37.88008499145508, -53.858116149902344, 6.033304691314697, 7.813335418701172, -0.18738104403018951, 3.130277395248413, -1.0459574460983276, 1.2390247583389282, 
30, 1330719354, 92.07176971435547, -37.885311126708984, -53.84477996826172, 6.0327911376953125, 7.808505535125732, -0.19354663789272308, 3.21878719329834, -1.1049339771270752, 1.27858567237854, 
31, 1330727687, 92.10621643066406, -37.894893646240234, -53.85730743408203, 6.0253496170043945, 7.826199531555176, -0.16734282672405243, 3.2118332386016846, -1.14659583568573, 1.1936619281768799, 
32, 1330736020, 92.11334991455078, -37.89987564086914, -53.85021209716797, 6.042962074279785, 7.809898376464844, -0.19381748139858246, 3.149808406829834, -1.17502760887146, 1.3006908893585205, 
33, 1330744353, 92.14974212646484, -37.909908294677734, -53.86485290527344, 6.019108772277832, 7.807181358337402, -0.178997203707695, 3.2900586128234863, -1.343082308769226, 1.2557250261306763, 
34, 1330752686, 92.15939331054688, -37.914119720458984, -53.8560905456543, 6.027454376220703, 7.811300277709961, -0.20329579710960388, 3.1933906078338623, -1.2987697124481201, 1.2229132652282715, 
35, 1330761019, 92.19491577148438, -37.92375564575195, -53.871376037597656, 6.025350093841553, 7.817850112915039, -0.18804697692394257, 3.1355795860290527, -1.4052482843399048, 1.2092864513397217, 
36, 1330769352, 92.20620727539062, -37.92754364013672, -53.87699890136719, 6.011984348297119, 7.807738304138184, -0.18888773024082184, 3.2063515186309814, -1.3235899209976196, 1.205008864402771, 
37, 1330777685, 92.24325561523438, -37.93729019165039, -53.89377212524414, 6.03367805480957, 7.798972129821777, -0.190998837351799, 3.212242364883423, -1.5413875579833984, 1.231698751449585, 
38, 1330786018, 92.25679779052734, -37.9412727355957, -53.892215728759766, 6.025774955749512, 7.799373149871826, -0.21241186559200287, 3.2321701049804688, -1.4905177354812622, 1.2474770545959473, 
39, 1330794351, 92.2931137084961, -37.95093536376953, -53.90790557861328, 6.0089945793151855, 7.804966926574707, -0.1706176996231079, 3.202777862548828, -1.4415432214736938, 1.2176237106323242, 
40, 1330802684, 92.30656433105469, -37.9546012878418, -53.91537857055664, 6.027123928070068, 7.813353538513184, -0.15025202929973602, 3.115574359893799, -1.519769310951233, 1.2270114421844482, 
41, 1330811017, 92.34327697753906, -37.96430206298828, -53.93244552612305, 6.015304088592529, 7.800734519958496, -0.18403878808021545, 3.1498847007751465, -1.5657981634140015, 1.2306102514266968, 
42, 1330819350, 92.35650634765625, -37.96831130981445, -53.932762145996094, 6.019042015075684, 7.818696022033691, -0.14912667870521545, 3.137423515319824, -1.4537359476089478, 1.2786498069763184, 
43, 1330827683, 92.39270782470703, -37.977394104003906, -53.94826889038086, 6.016676902770996, 7.819211959838867, -0.16314230859279633, 3.2025601863861084, -1.4242538213729858, 1.1501944065093994, 
44, 1330836016, 92.40619659423828, -37.9812126159668, -53.947364807128906, 6.017980575561523, 7.80368709564209, -0.15668927133083344, 3.14211106300354, -1.522510051727295, 1.2843360900878906, 
45, 1330844349, 92.44273376464844, -37.9910888671875, -53.964515686035156, 6.028704643249512, 7.813574314117432, -0.15461929142475128, 3.120415449142456, -1.576863408088684, 1.2538806200027466, 
46, 1330852682, 92.45586395263672, -37.99406814575195, -53.961002349853516, 6.031650066375732, 7.8028130531311035, -0.1776869297027588, 3.141752004623413, -1.4974591732025146, 1.1840306520462036, 
47, 1330861015, 92.49028015136719, -38.003868103027344, -53.97734451293945, 6.020230293273926, 7.798227787017822, -0.1769290566444397, 2.9223923683166504, -1.50230073928833, 1.2441987991333008, 
48, 1330869348, 92.50171661376953, -38.00742721557617, -53.984161376953125, 6.036450386047363, 7.804553508758545, -0.16903144121170044, 3.039602756500244, -1.3209773302078247, 1.2348495721817017, 
49, 1330877681, 92.53619384765625, -38.01636505126953, -54.000144958496094, 6.054467678070068, 7.810904502868652, -0.16124537587165833, 2.969599485397339, -1.4546581506729126, 1.1384632587432861, 
50, 1330886014, 92.54834747314453, -38.02065658569336, -53.996368408203125, 6.031916618347168, 7.795629978179932, -0.15601912140846252, 3.1037797927856445, -1.3434923887252808, 1.2954655885696411, 
51, 1330894347, 92.58351135253906, -38.03030776977539, -54.01118469238281, 6.0371174812316895, 7.792956352233887, -0.14607200026512146, 3.127946376800537, -1.3544039726257324, 1.2216839790344238, 
52, 1330902680, 92.59564208984375, -38.034332275390625, -54.00950241088867, 6.047516822814941, 7.803951263427734, -0.1731952428817749, 3.1380510330200195, -1.323051929473877, 1.2392677068710327, 
53, 1330911013, 92.62935638427734, -38.04461669921875, -54.02332305908203, 6.052947044372559, 7.814153671264648, -0.15998363494873047, 3.0272436141967773, -1.2561732530593872, 1.2947739362716675, 
54, 1330919346, 92.64005279541016, -38.048885345458984, -54.01681137084961, 6.036109924316406, 7.791822910308838, -0.13997142016887665, 3.013911724090576, -1.238781213760376, 1.243788719177246, 
55, 1330927679, 92.6745376586914, -38.059295654296875, -54.03152847290039, 6.061389446258545, 7.803135395050049, -0.14869920909404755, 3.0531399250030518, -1.3429158926010132, 1.3171095848083496, 
56, 1330936012, 92.6863021850586, -38.063682556152344, -54.02742004394531, 6.044508457183838, 7.811091423034668, -0.16070593893527985, 3.1498336791992188, -1.2642929553985596, 1.231865406036377, 
57, 1330944345, 92.72063446044922, -38.07258224487305, -54.04071807861328, 6.034749507904053, 7.808043956756592, -0.17258216440677643, 3.1347343921661377, -1.2164456844329834, 1.1296006441116333, 
58, 1330952678, 92.73160552978516, -38.07730484008789, -54.03988265991211, 6.038022518157959, 7.817890644073486, -0.1774965524673462, 3.1145503520965576, -1.1619129180908203, 1.2699666023254395, 
59, 1330961011, 92.76590728759766, -38.08716583251953, -54.05353546142578, 6.0213165283203125, 7.83344030380249, -0.1804981529712677, 3.1140120029449463, -1.240932822227478, 1.246529459953308, 
60, 1330969344, 92.77722930908203, -38.091556549072266, -54.050941467285156, 6.035170555114746, 7.800995826721191, -0.18436694145202637, 3.1061227321624756, -1.1900628805160522, 1.245837926864624, 
61, 1330977677, 92.81095123291016, -38.10099411010742, -54.06380844116211, 6.018648147583008, 7.808143615722656, -0.16333191096782684, 3.100987672805786, -1.169494867324829, 1.194750428199768, 
62, 1330986010, 92.8232650756836, -38.10535430908203, -54.06191635131836, 6.036242961883545, 7.806362152099609, -0.1826782077550888, 3.1648952960968018, -1.2395241260528564, 1.2495136260986328, 
63, 1330994343, 92.85950469970703, -38.114532470703125, -54.07705307006836, 6.024704933166504, 7.808829307556152, -0.19461369514465332, 3.2340400218963623, -1.3854224681854248, 1.174246072769165, 
64, 1331002676, 92.87178802490234, -38.119022369384766, -54.07527160644531, 6.046130180358887, 7.80361795425415, -0.20332929491996765, 3.11905837059021, -1.2553794384002686, 1.268096923828125, 
65, 1331011009, 92.90754699707031, -38.12841033935547, -54.0891227722168, 6.027773380279541, 7.80022668838501, -0.17094339430332184, 3.269388198852539, -1.2656248807907104, 1.1967353820800781, 
66, 1331019342, 92.92189025878906, -38.132476806640625, -54.087745666503906, 6.0380730628967285, 7.807403087615967, -0.19818711280822754, 3.1435325145721436, -1.4938989877700806, 1.2258715629577637, 
67, 1331027675, 92.9595718383789, -38.14262008666992, -54.105384826660156, 6.02204704284668, 7.813112735748291, -0.16180919110774994, 3.2154312133789062, -1.6209965944290161, 1.3061721324920654, 
68, 1331036008, 92.9743423461914, -38.14726638793945, -54.10703659057617, 6.019510269165039, 7.815515518188477, -0.17519238591194153, 3.0991432666778564, -1.6022087335586548, 1.3050196170806885, 
69, 1331044341, 93.01066589355469, -38.15802001953125, -54.12288284301758, 6.036398410797119, 7.832662105560303, -0.16537827253341675, 3.187588930130005, -1.4458850622177124, 1.3739218711853027, 
70, 1331052674, 93.0256576538086, -38.16371154785156, -54.11771011352539, 6.002152919769287, 7.874606609344482, -0.15282931923866272, 3.2802484035491943, -1.3897514343261719, 1.434589147567749, 
71, 1331061007, 93.06124114990234, -38.175086975097656, -54.132965087890625, 5.980956077575684, 7.852984428405762, -0.17601549625396729, 3.1277284622192383, -1.409807562828064, 1.4459491968154907, 
72, 1331069340, 93.07524108886719, -38.17893981933594, -54.12936019897461, 6.0009565353393555, 7.8482160568237305, -0.1681925356388092, 3.152574300765991, -1.4196689128875732, 1.267212986946106, 
73, 1331077673, 93.1097640991211, -38.18767547607422, -54.144100189208984, 5.994441509246826, 7.822780132293701, -0.18866004049777985, 3.043649911880493, -1.3705408573150635, 1.1294212341308594, 
74, 1331086006, 93.12265014648438, -38.19034194946289, -54.147186279296875, 5.9904069900512695, 7.808145046234131, -0.16521835327148438, 3.1033055782318115, -1.3099632263183594, 1.1475563049316406, 
75, 1331094339, 93.15728759765625, -38.199485778808594, -54.16160583496094, 6.003749847412109, 7.796257495880127, -0.20999573171138763, 3.088679790496826, -1.3273296356201172, 1.1791385412216187, 
76, 1331102672, 93.17105102539062, -38.2020378112793, -54.16753387451172, 5.999579906463623, 7.770556449890137, -0.18802784383296967, 3.04628849029541, -1.493079423904419, 1.1546515226364136, 
77, 1331111005, 93.207275390625, -38.21124267578125, -54.18417739868164, 6.017468452453613, 7.766036033630371, -0.18002696335315704, 3.1201722621917725, -1.5321921110153198, 1.1974397897720337, 
78, 1331119338, 93.221435546875, -38.21414566040039, -54.184364318847656, 6.01159143447876, 7.767046928405762, -0.17940188944339752, 3.0512702465057373, -1.5334091186523438, 1.194750428199768, 
79, 1331127671, 93.2562255859375, -38.22314453125, -54.199798583984375, 6.013463020324707, 7.79194450378418, -0.17421533167362213, 3.0305356979370117, -1.4304014444351196, 1.168355107307434, 
80, 1331136004, 93.27066802978516, -38.22562789916992, -54.203731536865234, 6.0224199295043945, 7.804072380065918, -0.16665132343769073, 3.212664842605591, -1.3720134496688843, 1.124720811843872, 
81, 1331144337, 93.3056411743164, -38.23440170288086, -54.218387603759766, 6.051666736602783, 7.8178300857543945, -0.15609778463840485, 3.1211588382720947, -1.3464124202728271, 1.1397438049316406, 
82, 1331152670, 93.31918334960938, -38.236534118652344, -54.214134216308594, 6.066053867340088, 7.826150417327881, -0.15048739314079285, 3.060901165008545, -1.448754072189331, 1.0832773447036743, 
83, 1331161003, 93.35379791259766, -38.24507522583008, -54.22896957397461, 6.086454391479492, 7.8426642417907715, -0.12145060300827026, 3.050245761871338, -1.3824132680892944, 1.116524577140808, 
84, 1331169336, 93.36688232421875, -38.24814987182617, -54.22472381591797, 6.088914394378662, 7.829576015472412, -0.15128721296787262, 3.128279685974121, -1.3244352340698242, 1.1769613027572632, 
85, 1331177669, 93.40165710449219, -38.257503509521484, -54.23765563964844, 6.071993350982666, 7.814793109893799, -0.1385864019393921, 3.2115516662597656, -1.1982853412628174, 1.2048040628433228, 
86, 1331186002, 93.41458892822266, -38.261844635009766, -54.24119567871094, 6.055110931396484, 7.801661491394043, -0.12964601814746857, 3.1162919998168945, -1.3363715410232544, 1.3085672855377197, 
87, 1331194335, 93.44908142089844, -38.27206039428711, -54.25457000732422, 6.047877788543701, 7.819277763366699, -0.1258023977279663, 3.158299684524536, -1.216957926750183, 1.3122813701629639, 
88, 1331202668, 93.46133422851562, -38.27638244628906, -54.25141906738281, 6.076737403869629, 7.812191486358643, -0.12889482080936432, 3.1697235107421875, -1.2043300867080688, 1.2938648462295532, 
89, 1331211001, 93.4954605102539, -38.28704833984375, -54.26377868652344, 6.0596489906311035, 7.819484233856201, -0.15554088354110718, 3.180788278579712, -1.1357606649398804, 1.3628181219100952, 
90, 1331219334, 93.5066146850586, -38.291683197021484, -54.25749588012695, 6.055227756500244, 7.804955959320068, -0.17232592403888702, 3.1695058345794678, -1.0613259077072144, 1.3121404647827148, 
91, 1331227667, 93.54109954833984, -38.30223846435547, -54.27028274536133, 6.025257110595703, 7.798302173614502, -0.18700329959392548, 3.1852192878723145, -1.1868354082107544, 1.3524185419082642, 
92, 1331236000, 93.55415344238281, -38.307220458984375, -54.270870208740234, 6.019305229187012, 7.784623146057129, -0.18543432652950287, 3.242121458053589, -1.2543545961380005, 1.36160147190094, 
93, 1331244333, 93.5896224975586, -38.318023681640625, -54.28544998168945, 5.99172830581665, 7.798328399658203, -0.19398781657218933, 3.1827478408813477, -1.3351035118103027, 1.3951305150985718, 
94, 1331252666, 93.60201263427734, -38.32211685180664, -54.28407669067383, 5.980687618255615, 7.776800155639648, -0.16467171907424927, 3.136066198348999, -1.2818900346755981, 1.2648438215255737, 
95, 1331260999, 93.63700103759766, -38.33195877075195, -54.2982063293457, 5.995205402374268, 7.788361549377441, -0.16650578379631042, 3.1540215015411377, -1.3095788955688477, 1.280032992362976, 
96, 1331269332, 93.65034484863281, -38.33640670776367, -54.29724884033203, 5.971039295196533, 7.801783084869385, -0.18233022093772888, 3.206620454788208, -1.3468220233917236, 1.3230520486831665, 
97, 1331277665, 93.6846694946289, -38.345489501953125, -54.31094741821289, 5.989739894866943, 7.824867248535156, -0.17038175463676453, 3.110874891281128, -1.27357816696167, 1.1894739866256714, 
98, 1331285998, 93.69780731201172, -38.349178314208984, -54.30950927734375, 6.013236045837402, 7.816794395446777, -0.15860584378242493, 3.1564290523529053, -1.3871899843215942, 1.2589012384414673, 
99, 1331294331, 93.73320007324219, -38.35847091674805, -54.3242301940918, 5.984996318817139, 7.811916351318359, -0.1754620224237442, 3.1561474800109863, -1.3782762289047241, 1.2209922075271606, 
100, 1331302664, 93.74597930908203, -38.3610954284668, -54.320701599121094, 5.999654769897461, 7.82222318649292, -0.16643092036247253, 3.1606173515319824, -1.3457719087600708, 1.1414728164672852, 
101, 1331310997, 93.7815933227539, -38.369972229003906, -54.3354377746582, 6.005970478057861, 7.825294494628906, -0.19715772569179535, 3.1835546493530273, -1.386216640472412, 1.1733496189117432, 
102, 1331319330, 93.79551696777344, -38.372947692871094, -54.33501434326172, 6.022318363189697, 7.83182954788208, -0.189839169383049, 3.15970778465271, -1.5195642709732056, 1.2096705436706543, 
103, 1331327663, 93.82980346679688, -38.3820686340332, -54.34977340698242, 6.018267631530762, 7.809873104095459, -0.1717093139886856, 3.019944190979004, -1.3887783288955688, 1.206302523612976, 
104, 1331335996, 93.84213256835938, -38.38408660888672, -54.34758758544922, 6.046067714691162, 7.8418288230896, -0.1657176911830902, 3.125808000564575, -1.3386127948760986, 1.089142918586731, 
105, 1331344329, 93.8773422241211, -38.393409729003906, -54.363243103027344, 6.022860050201416, 7.809961318969727, -0.1720094233751297, 3.070378065109253, -1.4688224792480469, 1.2389603853225708, 
106, 1331352662, 93.88887786865234, -38.39614486694336, -54.36233901977539, 6.045445919036865, 7.82832670211792, -0.14527256786823273, 3.063117027282715, -1.3095535039901733, 1.177627444267273, 
107, 1331360995, 93.92448425292969, -38.40544509887695, -54.37843322753906, 6.043988227844238, 7.811161041259766, -0.17832307517528534, 3.0864510536193848, -1.506629228591919, 1.2414066791534424, 
108, 1331369328, 93.9366683959961, -38.407928466796875, -54.37831115722656, 6.0068159103393555, 7.812355995178223, -0.18794825673103333, 3.0832371711730957, -1.405619740486145, 1.1519746780395508, 
109, 1331377661, 93.97111511230469, -38.416542053222656, -54.39277648925781, 6.019298553466797, 7.804569244384766, -0.17609629034996033, 3.0738236904144287, -1.3644959926605225, 1.1509884595870972, 
110, 1331385994, 93.98200988769531, -38.41873550415039, -54.386653900146484, 6.0337443351745605, 7.784809112548828, -0.1471300572156906, 3.025028705596924, -1.2942616939544678, 1.120200276374817, 
111, 1331394327, 94.01683044433594, -38.42784118652344, -54.40130615234375, 6.042424201965332, 7.803035736083984, -0.16563217341899872, 3.0989511013031006, -1.384500503540039, 1.2119759321212769, 
112, 1331402660, 94.02886199951172, -38.43026351928711, -54.396392822265625, 6.059377193450928, 7.789231777191162, -0.19574777781963348, 3.1447110176086426, -1.3374985456466675, 1.1479277610778809, 
113, 1331410993, 94.06329345703125, -38.43929672241211, -54.41108322143555, 6.0522332191467285, 7.798610210418701, -0.17886804044246674, 3.0512828826904297, -1.3922873735427856, 1.2078264951705933, 
114, 1331419326, 94.07633209228516, -38.44251251220703, -54.413658142089844, 6.053650379180908, 7.776827812194824, -0.15851271152496338, 3.1641006469726562, -1.471230387687683, 1.2447749376296997, 
115, 1331427659, 94.11137390136719, -38.451873779296875, -54.42866897583008, 6.029168128967285, 7.7773518562316895, -0.1757398247718811, 3.1107211112976074, -1.4114980697631836, 1.250333309173584, 
116, 1331435992, 94.12337493896484, -38.45492172241211, -54.42802429199219, 6.044528484344482, 7.792532444000244, -0.1450427621603012, 3.130366563796997, -1.3799028396606445, 1.2148061990737915, 
117, 1331444325, 94.15886688232422, -38.46376037597656, -54.44257354736328, 6.051582336425781, 7.8109893798828125, -0.15834257006645203, 3.1989614963531494, -1.374843955039978, 1.1876039505004883, 
118, 1331452658, 94.17129516601562, -38.467586517333984, -54.43531036376953, 6.062013626098633, 7.807704925537109, -0.16509343683719635, 3.17885422706604, -1.4072457551956177, 1.311781644821167, 
119, 1331460991, 94.2071304321289, -38.47719192504883, -54.44939041137695, 6.053753852844238, 7.819211006164551, -0.1401877999305725, 3.271078586578369, -1.337062954902649, 1.2775483131408691, 
120, 1331469324, 94.21749114990234, -38.48110580444336, -54.44471740722656, 6.055391788482666, 7.81569242477417, -0.12383846193552017, 3.1271398067474365, -1.1887568235397339, 1.3046098947525024, 
121, 1331477657, 94.25262451171875, -38.49102783203125, -54.4587516784668, 6.048696517944336, 7.819795608520508, -0.16703137755393982, 3.1978986263275146, -1.3268941640853882, 1.3191969394683838, 
122, 1331485990, 94.26338958740234, -38.49509811401367, -54.4567985534668, 6.047062397003174, 7.825049877166748, -0.15563443303108215, 3.154611110687256, -1.2524081468582153, 1.3257801532745361, 
123, 1331494323, 94.29730224609375, -38.50572204589844, -54.4686164855957, 6.019335746765137, 7.807287693023682, -0.14021234214305878, 3.221041202545166, -1.1119011640548706, 1.3914419412612915, 
124, 1331502656, 94.30793762207031, -38.508975982666016, -54.4659538269043, 6.014977931976318, 7.8157572746276855, -0.16918647289276123, 3.2131268978118896, -1.198554277420044, 1.2300469875335693, 
125, 1331510989, 94.34245300292969, -38.519371032714844, -54.479427337646484, 5.997786045074463, 7.809083938598633, -0.1803690493106842, 3.1731679439544678, -1.2691980600357056, 1.3769954442977905, 
126, 1331519322, 94.35215759277344, -38.523216247558594, -54.47808837890625, 6.010092735290527, 7.80181884765625, -0.18877366185188293, 3.0327000617980957, -1.302010178565979, 1.3223861455917358, 
127, 1331527655, 94.38735961914062, -38.53297805786133, -54.49301528930664, 5.989925861358643, 7.814158916473389, -0.18986350297927856, 3.150986433029175, -1.4136111736297607, 1.3127295970916748, 
128, 1331535988, 94.39850616455078, -38.53620910644531, -54.490665435791016, 5.991505146026611, 7.814998626708984, -0.1911383718252182, 3.213881492614746, -1.314215064048767, 1.2613600492477417, 
129, 1331544321, 94.43350982666016, -38.54536437988281, -54.505348205566406, 5.994760036468506, 7.820738792419434, -0.20194657146930695, 3.1470930576324463, -1.3976534605026245, 1.2434430122375488, 
130, 1331552654, 94.444091796875, -38.54855728149414, -54.502689361572266, 5.970915794372559, 7.808966159820557, -0.1797073483467102, 3.170017719268799, -1.3019075393676758, 1.2730274200439453, 
131, 1331560987, 94.47789764404297, -38.55760192871094, -54.51679611206055, 6.003910541534424, 7.802853107452393, -0.1630307137966156, 3.049093008041382, -1.3477314710617065, 1.2284587621688843, 
132, 1331569320, 94.48780059814453, -38.55986785888672, -54.5131950378418, 5.985691547393799, 7.808752059936523, -0.15103529393672943, 3.1412274837493896, -1.2685962915420532, 1.1722867488861084, 
133, 1331577653, 94.52256774902344, -38.56838607788086, -54.52813720703125, 6.007030963897705, 7.801786422729492, -0.1540633589029312, 3.1063923835754395, -1.4338465929031372, 1.1730806827545166, 
134, 1331585986, 94.53321838378906, -38.57057189941406, -54.527286529541016, 6.034811496734619, 7.815799236297607, -0.14215025305747986, 3.1462602615356445, -1.4125993251800537, 1.1866179704666138, 
135, 1331594319, 94.56768798828125, -38.57918167114258, -54.541805267333984, 6.041317462921143, 7.801748752593994, -0.14631912112236023, 3.105457305908203, -1.3941315412521362, 1.1833137273788452, 
136, 1331602652, 94.57747650146484, -38.58168029785156, -54.53840255737305, 6.024518013000488, 7.808430194854736, -0.1510152369737625, 3.1646006107330322, -1.301843523979187, 1.2205824851989746, 
137, 1331610985, 94.6114273071289, -38.59056091308594, -54.55287551879883, 6.053973197937012, 7.820034980773926, -0.14641624689102173, 3.0502583980560303, -1.3906737565994263, 1.2184563875198364, 
138, 1331619318, 94.62069702148438, -38.59270095825195, -54.55062484741211, 6.035984516143799, 7.798122406005859, -0.16754601895809174, 3.0797150135040283, -1.3658279180526733, 1.1876938343048096, 
139, 1331627651, 94.65485382080078, -38.60121154785156, -54.56464767456055, 6.059820175170898, 7.809805393218994, -0.16454288363456726, 3.112539529800415, -1.353635549545288, 1.1737724542617798, 
140, 1331635984, 94.66267395019531, -38.603492736816406, -54.56208801269531, 6.055444240570068, 7.8047776222229, -0.17442256212234497, 2.957343101501465, -1.3390995264053345, 1.2049962282180786, 
141, 1331644317, 94.69710540771484, -38.61199188232422, -54.575904846191406, 6.0610671043396, 7.805181980133057, -0.15523198246955872, 3.1652791500091553, -1.3379212617874146, 1.1741565465927124, 
142, 1331652650, 94.70552825927734, -38.61471939086914, -54.57180404663086, 6.044939994812012, 7.790101528167725, -0.18245664238929749, 3.0200207233428955, -1.3805686235427856, 1.264600396156311, 
143, 1331660983, 94.73944854736328, -38.6239128112793, -54.58546829223633, 6.054038047790527, 7.784464359283447, -0.16860823333263397, 3.1192245483398438, -1.3213869333267212, 1.259554386138916, 
144, 1331669316, 94.74779510498047, -38.626319885253906, -54.58094787597656, 6.051727294921875, 7.791898250579834, -0.1829950511455536, 3.090754747390747, -1.3207212686538696, 1.2189432382583618, 
145, 1331677649, 94.78245544433594, -38.635128021240234, -54.59511947631836, 6.032858371734619, 7.79290771484375, -0.19082652032375336, 3.1705172061920166, -1.3758430480957031, 1.222938895225525, 
146, 1331685982, 94.79104614257812, -38.63761520385742, -54.59244155883789, 6.0336713790893555, 7.804988861083984, -0.1634705364704132, 3.151857376098633, -1.3097071647644043, 1.2308152914047241, 
147, 1331694315, 94.82479095458984, -38.647491455078125, -54.605934143066406, 6.024547576904297, 7.7947893142700195, -0.14336153864860535, 3.1176369190216064, -1.3020613193511963, 1.3442864418029785, 
148, 1331702648, 94.83342742919922, -38.64979553222656, -54.60289764404297, 6.0443949699401855, 7.766884803771973, -0.1816283017396927, 3.2344117164611816, -1.257364273071289, 1.2130389213562012, 
149, 1331710981, 94.86722564697266, -38.65931701660156, -54.61579132080078, 6.039914131164551, 7.800045013427734, -0.17024266719818115, 3.1735520362854004, -1.2518059015274048, 1.3023555278778076, 
150, 1331719314, 94.87510681152344, -38.66140365600586, -54.61381149291992, 6.038922309875488, 7.824095249176025, -0.15651822090148926, 3.093456983566284, -1.3560562133789062, 1.198951244354248, 
151, 1331727647, 94.90879821777344, -38.67106628417969, -54.627506256103516, 6.024932861328125, 7.821680545806885, -0.1844773143529892, 3.1089534759521484, -1.3254855871200562, 1.3272784948349, 
152, 1331735980, 94.9168930053711, -38.67355728149414, -54.62269592285156, 6.0038580894470215, 7.799340724945068, -0.18510495126247406, 3.2118585109710693, -1.2772026062011719, 1.250166654586792, 
153, 1331744313, 94.94987487792969, -38.682861328125, -54.63568115234375, 6.006194114685059, 7.806992530822754, -0.16853386163711548, 3.0796384811401367, -1.2675718069076538, 1.2830300331115723, 
154, 1331752646, 94.95745086669922, -38.685420989990234, -54.632179260253906, 6.006011486053467, 7.803013324737549, -0.16182193160057068, 3.166175365447998, -1.2889211177825928, 1.2726432085037231, 
155, 1331760979, 94.99073028564453, -38.69524002075195, -54.64525604248047, 6.010091781616211, 7.82066011428833, -0.15881606936454773, 3.113410472869873, -1.2755504846572876, 1.3484615087509155, 
156, 1331769312, 94.996826171875, -38.69810485839844, -54.64011764526367, 6.012563705444336, 7.855763912200928, -0.16802409291267395, 3.060926914215088, -1.2447879314422607, 1.3169816732406616, 
157, 1331777645, 95.02954864501953, -38.70681381225586, -54.652442932128906, 6.001974582672119, 7.835450172424316, -0.18737414479255676, 3.105649471282959, -1.2197115421295166, 1.213653802871704, 
158, 1331785978, 95.03580474853516, -38.708152770996094, -54.64702224731445, 6.007166385650635, 7.8228044509887695, -0.17286470532417297, 3.1874351501464844, -1.164435863494873, 1.1447001695632935, 
159, 1331794311, 95.0682601928711, -38.71697998046875, -54.65864562988281, 6.013391971588135, 7.803132057189941, -0.1781294196844101, 3.134721279144287, -1.155803918838501, 1.2240017652511597, 
160, 1331802644, 95.07455444335938, -38.71882247924805, -54.65424728393555, 6.006167411804199, 7.8087029457092285, -0.17002148926258087, 3.1897921562194824, -1.2042917013168335, 1.2216711044311523, 
161, 1331810977, 95.10802459716797, -38.72776412963867, -54.66790771484375, 6.007824420928955, 7.813294410705566, -0.17148414254188538, 3.10785174369812, -1.3461816310882568, 1.256224513053894, 
162, 1331819310, 95.11389923095703, -38.729984283447266, -54.66221618652344, 6.012762069702148, 7.81171989440918, -0.1799502670764923, 3.122708559036255, -1.268083930015564, 1.2874995470046997, 
163, 1331827643, 95.147216796875, -38.7389030456543, -54.67624282836914, 6.0215864181518555, 7.805367469787598, -0.17714375257492065, 3.066356658935547, -1.384820818901062, 1.2600922584533691, 
164, 1331835976, 95.1534194946289, -38.740631103515625, -54.67362976074219, 6.013653755187988, 7.811698913574219, -0.13614003360271454, 3.118917465209961, -1.3681460618972778, 1.245466709136963, 
165, 1331844309, 95.18695068359375, -38.74795913696289, -54.688232421875, 6.0279669761657715, 7.785957336425781, -0.1689191311597824, 3.054151773452759, -1.4588333368301392, 1.0810104608535767, 
166, 1331852642, 95.19267272949219, -38.74932098388672, -54.68225860595703, 6.033473968505859, 7.789571285247803, -0.15939593315124512, 3.0854270458221436, -1.3867547512054443, 1.2172013521194458, 
167, 1331860975, 95.22686767578125, -38.75767517089844, -54.69664764404297, 6.043821811676025, 7.799797058105469, -0.17998231947422028, 3.153470754623413, -1.4343074560165405, 1.2047910690307617, 
168, 1331869308, 95.2335433959961, -38.758148193359375, -54.69209671020508, 6.040111541748047, 7.791443347930908, -0.16203124821186066, 3.1659703254699707, -1.4935531616210938, 1.121596097946167, 
169, 1331877641, 95.26683807373047, -38.766082763671875, -54.706722259521484, 6.052905559539795, 7.799683094024658, -0.16077083349227905, 3.0342111587524414, -1.4636614322662354, 1.1620666980743408, 
170, 1331885974, 95.27193450927734, -38.767642974853516, -54.70183181762695, 6.062258720397949, 7.818697452545166, -0.16365283727645874, 3.109414577484131, -1.366353154182434, 1.2455435991287231, 
171, 1331894307, 95.30585479736328, -38.77675247192383, -54.71706771850586, 6.051294803619385, 7.798514366149902, -0.1351773738861084, 3.0688669681549072, -1.5124309062957764, 1.3111670017242432, 
172, 1331902640, 95.3106918334961, -38.77850341796875, -54.711917877197266, 6.073081970214844, 7.792905330657959, -0.18633562326431274, 3.056546688079834, -1.4378166198730469, 1.285424828529358, 
173, 1331910973, 95.34376525878906, -38.786624908447266, -54.72504425048828, 6.05861234664917, 7.814839839935303, -0.139076367020607, 3.1335432529449463, -1.3302112817764282, 1.1763595342636108, 
174, 1331919306, 95.34798431396484, -38.78934097290039, -54.719749450683594, 6.061886787414551, 7.815440654754639, -0.14391805231571198, 3.1629226207733154, -1.2630763053894043, 1.3864473104476929, 
175, 1331927639, 95.3814926147461, -38.798316955566406, -54.732078552246094, 6.026539325714111, 7.7894206047058105, -0.12871985137462616, 3.249933958053589, -1.2492702007293701, 1.2777403593063354, 
176, 1331935972, 95.38456726074219, -38.80045700073242, -54.7250862121582, 6.049279689788818, 7.789299011230469, -0.1564595252275467, 3.1401002407073975, -1.185106635093689, 1.3180574178695679, 
177, 1331944305, 95.41650390625, -38.80990219116211, -54.736873626708984, 6.048006057739258, 7.807180881500244, -0.15335342288017273, 3.1105926036834717, -1.1988742351531982, 1.3306595087051392, 
178, 1331952638, 95.42015838623047, -38.811092376708984, -54.729618072509766, 6.003442764282227, 7.82733154296875, -0.18374523520469666, 3.1862573623657227, -1.27357816696167, 1.2224650382995605, 
179, 1331960971, 95.45269012451172, -38.820533752441406, -54.742427825927734, 6.016561508178711, 7.818918228149414, -0.16072845458984375, 3.1108875274658203, -1.3000761270523071, 1.3447346687316895, 
180, 1331969304, 95.4546890258789, -38.82231521606445, -54.73565673828125, 6.0170416831970215, 7.791674613952637, -0.16874690353870392, 3.0821096897125244, -1.2080570459365845, 1.2971049547195435, 
181, 1331977637, 95.48741912841797, -38.83102035522461, -54.74796676635742, 6.027360439300537, 7.791381359100342, -0.18103474378585815, 3.1788933277130127, -1.2640113830566406, 1.2550336122512817, 
182, 1331985970, 95.49038696289062, -38.831932067871094, -54.74296951293945, 6.020282745361328, 7.790408134460449, -0.1652374118566513, 3.135874032974243, -1.345259666442871, 1.218289852142334, 
183, 1331994303, 95.52349090576172, -38.841156005859375, -54.755592346191406, 6.0272603034973145, 7.804534912109375, -0.18244299292564392, 3.207721710205078, -1.2894845008850098, 1.3229495286941528, 
184, 1332002636, 95.52531433105469, -38.842281341552734, -54.74764633178711, 6.001588344573975, 7.803220272064209, -0.17704415321350098, 3.1419193744659424, -1.2178928852081299, 1.245569109916687, 
185, 1332010969, 95.5582504272461, -38.850318908691406, -54.75981903076172, 6.022279262542725, 7.834259510040283, -0.1851678192615509, 3.2252674102783203, -1.266457438468933, 1.1805343627929688, 
186, 1332019302, 95.56050109863281, -38.850860595703125, -54.75101089477539, 6.0300493240356445, 7.8283162117004395, -0.1585274636745453, 3.189279794692993, -1.2782912254333496, 1.196492314338684, 
187, 1332027635, 95.59323120117188, -38.85926055908203, -54.763771057128906, 5.998464107513428, 7.830036163330078, -0.16408753395080566, 3.163025140762329, -1.3221428394317627, 1.2350159883499146, 
188, 1332035968, 95.59490203857422, -38.86058807373047, -54.75465774536133, 6.007575988769531, 7.824407577514648, -0.1540011763572693, 3.1869614124298096, -1.247285008430481, 1.3035211563110352, 
189, 1332044301, 95.62702941894531, -38.869014739990234, -54.766597747802734, 6.008493423461914, 7.813605785369873, -0.16340944170951843, 3.1593880653381348, -1.251601219177246, 1.2336840629577637, 
190, 1332052634, 95.6287841796875, -38.868980407714844, -54.760292053222656, 6.00559139251709, 7.820579528808594, -0.14104130864143372, 3.2196578979492188, -1.2921741008758545, 1.1571743488311768, 
191, 1332060967, 95.66020202636719, -38.87746047973633, -54.77210235595703, 6.03696346282959, 7.825989246368408, -0.18443706631660461, 3.0924837589263916, -1.2434558868408203, 1.2428027391433716, 
192, 1332069300, 95.65996551513672, -38.877254486083984, -54.763614654541016, 6.029881000518799, 7.8183441162109375, -0.1624501347541809, 3.030932664871216, -1.2875380516052246, 1.150745153427124, 
193, 1332077633, 95.69213104248047, -38.88496017456055, -54.77666473388672, 6.019864082336426, 7.820347785949707, -0.177840918302536, 3.0953521728515625, -1.3749336004257202, 1.1682395935058594, 
194, 1332085966, 95.6934814453125, -38.88493728637695, -54.7707633972168, 6.021596908569336, 7.816921234130859, -0.1676010638475418, 3.16420316696167, -1.4159164428710938, 1.1967227458953857, 
195, 1332094299, 95.72612762451172, -38.893287658691406, -54.783607482910156, 6.029514312744141, 7.803746223449707, -0.18078972399234772, 3.1778297424316406, -1.3499853610992432, 1.2443650960922241, 
196, 1332102632, 95.72686767578125, -38.89383316040039, -54.77706527709961, 6.0437164306640625, 7.8004231452941895, -0.18406802415847778, 3.161513566970825, -1.3811323642730713, 1.2756401300430298, 
197, 1332110965, 95.75867462158203, -38.90160369873047, -54.79032516479492, 6.063882350921631, 7.792896270751953, -0.1707364171743393, 3.051065444946289, -1.4013421535491943, 1.1851962804794312, 
198, 1332119298, 95.75879669189453, -38.90118408203125, -54.784080505371094, 6.047078609466553, 7.787874221801758, -0.1651018112897873, 3.108006000518799, -1.4177863597869873, 1.1717232465744019, 
199, 1332127631, 95.79093933105469, -38.909400939941406, -54.79765701293945, 6.038589954376221, 7.806561470031738, -0.15838894248008728, 3.076448678970337, -1.430234670639038, 1.2451591491699219, 
200, 1332135964, 95.79107666015625, -38.90936279296875, -54.790523529052734, 6.046513080596924, 7.769871711730957, -0.14720547199249268, 3.1216068267822266, -1.4612536430358887, 1.2325825691223145, 
201, 1332144297, 95.82307434082031, -38.91752243041992, -54.8042106628418, 6.043834686279297, 7.819076061248779, -0.1657881736755371, 3.0597357749938965, -1.4481264352798462, 1.2430974245071411, 
202, 1332152630, 95.82219696044922, -38.91762924194336, -54.79525375366211, 6.057256698608398, 7.819864273071289, -0.1454458087682724, 3.0869381427764893, -1.4119335412979126, 1.2556227445602417, 
203, 1332160963, 95.85543060302734, -38.92563247680664, -54.80879211425781, 6.0629191398620605, 7.807525157928467, -0.16951589286327362, 3.222193479537964, -1.4404035806655884, 1.2280230522155762, 
204, 1332169296, 95.85356140136719, -38.925559997558594, -54.799373626708984, 6.042585849761963, 7.802592754364014, -0.16403116285800934, 3.0847227573394775, -1.337511420249939, 1.2324802875518799, 
205, 1332177629, 95.88441467285156, -38.93424606323242, -54.81058883666992, 6.048098564147949, 7.80230188369751, -0.1578831970691681, 3.122606039047241, -1.223758578300476, 1.2920076847076416, 
206, 1332185962, 95.88250732421875, -38.93452835083008, -54.801429748535156, 6.0231709480285645, 7.7970871925354, -0.17573851346969604, 3.090050458908081, -1.382515549659729, 1.290419578552246, 
207, 1332194295, 95.91404724121094, -38.943084716796875, -54.8141975402832, 6.034343242645264, 7.812715530395508, -0.13644759356975555, 3.095275640487671, -1.3741142749786377, 1.2964645624160767, 
208, 1332202628, 95.9111328125, -38.94367599487305, -54.80424499511719, 6.025613307952881, 7.802816390991211, -0.15828649699687958, 3.111156463623047, -1.2694287300109863, 1.328866720199585, 
209, 1332210961, 95.94257354736328, -38.952701568603516, -54.81612014770508, 6.023119926452637, 7.809432506561279, -0.17822903394699097, 3.158721685409546, -1.2924556732177734, 1.3470782041549683, 
210, 1332219294, 95.93928527832031, -38.95307922363281, -54.80421447753906, 6.024771213531494, 7.820202350616455, -0.19150221347808838, 3.151165723800659, -1.2265889644622803, 1.3144969940185547, 
211, 1332227627, 95.97087860107422, -38.96132278442383, -54.81533432006836, 6.017546653747559, 7.805490970611572, -0.1686636358499527, 3.241558074951172, -1.2398185729980469, 1.2492319345474243, 
212, 1332235960, 95.96688842773438, -38.96171188354492, -54.803627014160156, 6.006101608276367, 7.8137383460998535, -0.13879741728305817, 3.175781011581421, -1.1530120372772217, 1.318595290184021, 
213, 1332244293, 95.99794006347656, -38.9699592590332, -54.81500244140625, 6.013512134552002, 7.804264545440674, -0.16867244243621826, 3.1674304008483887, -1.2673795223236084, 1.2604252099990845, 
214, 1332252626, 95.99356079101562, -38.969364166259766, -54.804691314697266, 6.003783702850342, 7.814840793609619, -0.18880969285964966, 3.138064384460449, -1.2211331129074097, 1.222631573677063, 
215, 1332260959, 96.02421569824219, -38.97771453857422, -54.81559371948242, 5.991969108581543, 7.808379650115967, -0.195987269282341, 3.1620261669158936, -1.2257949113845825, 1.2700051069259644, 
216, 1332269292, 96.02029418945312, -38.977699279785156, -54.80706024169922, 5.991001129150391, 7.816810131072998, -0.17937949299812317, 3.148015022277832, -1.3264204263687134, 1.3213614225387573, 
217, 1332277625, 96.05133056640625, -38.986026763916016, -54.81902313232422, 5.992590427398682, 7.797566890716553, -0.16206304728984833, 3.1405487060546875, -1.3315562009811401, 1.2823896408081055, 
218, 1332285958, 96.04620361328125, -38.98482131958008, -54.807945251464844, 6.010176181793213, 7.798410892486572, -0.17698292434215546, 3.1036131381988525, -1.2762806415557861, 1.191715121269226, 
219, 1332294291, 96.0774154663086, -38.9920768737793, -54.81978988647461, 6.009790897369385, 7.8077616691589355, -0.18810996413230896, 3.177190065383911, -1.3403290510177612, 1.157251238822937, 
220, 1332302624, 96.0738525390625, -38.990875244140625, -54.81088638305664, 6.023892879486084, 7.807870388031006, -0.15766769647598267, 3.2934012413024902, -1.338330864906311, 1.2105029821395874, 
221, 1332310957, 96.10448455810547, -38.998477935791016, -54.82392120361328, 6.037951946258545, 7.821629047393799, -0.1748693287372589, 3.028498888015747, -1.4509567022323608, 1.2155746221542358, 
222, 1332319290, 96.09910583496094, -38.997169494628906, -54.813472747802734, 6.044869899749756, 7.818813323974609, -0.1759522557258606, 3.1260385513305664, -1.3397142887115479, 1.2142428159713745, 
223, 1332327623, 96.13026428222656, -39.0047607421875, -54.82484817504883, 6.038634300231934, 7.81580114364624, -0.18378475308418274, 3.2234232425689697, -1.3045713901519775, 1.2021015882492065, 
224, 1332335956, 96.12511444091797, -39.003360748291016, -54.81400680541992, 6.024521827697754, 7.810912132263184, -0.1598764955997467, 3.117687702178955, -1.445603370666504, 1.228227972984314, 
225, 1332344289, 96.1561050415039, -39.01079559326172, -54.82625198364258, 6.047371864318848, 7.808673858642578, -0.13239674270153046, 3.147681951522827, -1.3952456712722778, 1.1986693143844604, 
226, 1332352622, 96.15054321289062, -39.00946044921875, -54.81759262084961, 6.048679828643799, 7.800849914550781, -0.13093721866607666, 3.178367853164673, -1.3841291666030884, 1.2351696491241455, 
227, 1332360955, 96.1814956665039, -39.01749801635742, -54.82954788208008, 6.0464186668396, 7.797366619110107, -0.1758880913257599, 3.174755811691284, -1.36240816116333, 1.2719002962112427, 
228, 1332369288, 96.17560577392578, -39.0155029296875, -54.81825256347656, 6.051738262176514, 7.815767765045166, -0.15162791311740875, 3.2100653648376465, -1.371847152709961, 1.1697635650634766, 
229, 1332377621, 96.20708465576172, -39.02337646484375, -54.830570220947266, 6.0256853103637695, 7.81098747253418, -0.1492273211479187, 3.2179930210113525, -1.4066697359085083, 1.2602202892303467, 
230, 1332385954, 96.20037841796875, -39.0228385925293, -54.82096862792969, 6.041287899017334, 7.80307674407959, -0.1596047431230545, 3.1216323375701904, -1.4125609397888184, 1.3579899072647095, 
231, 1332394287, 96.23129272460938, -39.0308952331543, -54.832950592041016, 6.030369281768799, 7.816575050354004, -0.1690555214881897, 3.186436414718628, -1.3784171342849731, 1.285680890083313, 
232, 1332402620, 96.22408294677734, -39.029502868652344, -54.822261810302734, 6.040681838989258, 7.7829461097717285, -0.14687852561473846, 3.1717588901519775, -1.3515220880508423, 1.2616033554077148, 
233, 1332410953, 96.25418090820312, -39.03666305541992, -54.833702087402344, 6.020624160766602, 7.798747539520264, -0.15618956089019775, 3.1403565406799316, -1.3472447395324707, 1.1767178773880005, 
234, 1332419286, 96.2456283569336, -39.03572082519531, -54.820777893066406, 6.028275012969971, 7.809895038604736, -0.1975453794002533, 3.1475539207458496, -1.2445060014724731, 1.3171608448028564, 
235, 1332427619, 96.27520751953125, -39.04314422607422, -54.832496643066406, 6.019119739532471, 7.825738906860352, -0.1685890555381775, 3.0668435096740723, -1.3763936758041382, 1.2162151336669922, 
236, 1332435952, 96.26744842529297, -39.04141616821289, -54.820526123046875, 6.018572807312012, 7.812955379486084, -0.16263610124588013, 3.1622307300567627, -1.415711522102356, 1.2572489976882935, 
237, 1332444285, 96.29780578613281, -39.049678802490234, -54.833282470703125, 6.034964084625244, 7.80359411239624, -0.1525585651397705, 3.090562343597412, -1.4692325592041016, 1.330864429473877, 
238, 1332452618, 96.28929138183594, -39.04764175415039, -54.826297760009766, 6.014647483825684, 7.823618412017822, -0.17338472604751587, 3.15397047996521, -1.3877792358398438, 1.2247061729431152, 
239, 1332460951, 96.318359375, -39.05485916137695, -54.83711624145508, 6.012951374053955, 7.818987846374512, -0.16108916699886322, 3.0975167751312256, -1.3063771724700928, 1.190306305885315, 
240, 1332469284, 96.30899810791016, -39.05245590209961, -54.82618713378906, 6.024902820587158, 7.811700820922852, -0.16743238270282745, 3.1326980590820312, -1.3593602180480957, 1.1973631381988525, 
241, 1332477617, 96.33708953857422, -39.05971908569336, -54.8358039855957, 6.014029502868652, 7.830543041229248, -0.17936588823795319, 3.076961040496826, -1.2008594274520874, 1.1898835897445679, 
242, 1332485950, 96.32627868652344, -39.05747604370117, -54.82280349731445, 6.011138439178467, 7.815982818603516, -0.14160041511058807, 3.065998077392578, -1.2891004085540771, 1.2230027914047241, 
243, 1332494283, 96.3548812866211, -39.06526565551758, -54.83274459838867, 6.019009590148926, 7.819314479827881, -0.16914017498493195, 3.124091625213623, -1.2324162721633911, 1.2611682415008545, 
244, 1332502616, 96.34336853027344, -39.06293487548828, -54.819190979003906, 6.015651702880859, 7.805972099304199, -0.18511061370372772, 3.0787031650543213, -1.2416883707046509, 1.2250263690948486, 
245, 1332510949, 96.3719253540039, -39.07020950317383, -54.82841491699219, 6.0080132484436035, 7.787556171417236, -0.1669321358203888, 3.1846179962158203, -1.1783957481384277, 1.1958774328231812, 
246, 1332519282, 96.36072540283203, -39.06769561767578, -54.814937591552734, 6.014325141906738, 7.805665969848633, -0.162938192486763, 3.185770273208618, -1.2201980352401733, 1.2130132913589478, 
247, 1332527615, 96.38896942138672, -39.07566452026367, -54.825042724609375, 6.008090019226074, 7.779456615447998, -0.14776916801929474, 3.0899479389190674, -1.259413719177246, 1.2932372093200684, 
248, 1332535948, 96.37752532958984, -39.07302474975586, -54.81108856201172, 6.024862766265869, 7.825344085693359, -0.18622469902038574, 3.202061414718628, -1.2321089506149292, 1.2133463621139526, 
249, 1332544281, 96.40582275390625, -39.08029556274414, -54.82097244262695, 6.013838768005371, 7.824027061462402, -0.18109025061130524, 3.1228108406066895, -1.2532405853271484, 1.2149344682693481, 
250, 1332552614, 96.39387512207031, -39.077972412109375, -54.808082580566406, 6.0209784507751465, 7.821625709533691, -0.1784893274307251, 3.124706268310547, -1.308900237083435, 1.2756147384643555, 
251, 1332560947, 96.4230728149414, -39.08535385131836, -54.819061279296875, 6.011382579803467, 7.802017688751221, -0.20261935889720917, 3.1605403423309326, -1.3609483242034912, 1.2432893514633179, 
252, 1332569280, 96.4112319946289, -39.081729888916016, -54.8049201965332, 6.027494430541992, 7.80788516998291, -0.17396512627601624, 3.1360790729522705, -1.3893545866012573, 1.1420619487762451, 
253, 1332577613, 96.4403076171875, -39.08837890625, -54.81574249267578, 6.027275085449219, 7.801113128662109, -0.16505998373031616, 3.166764974594116, -1.3627415895462036, 1.1594797372817993, 
254, 1332585946, 96.42947387695312, -39.084590911865234, -54.80276870727539, 6.0305914878845215, 7.805411338806152, -0.17055067420005798, 3.246168375015259, -1.467324137687683, 1.1456221342086792, 
255, 1332594279, 96.4588851928711, -39.09090042114258, -54.81411361694336, 6.046532154083252, 7.822596073150635, -0.1563408374786377, 3.1778552532196045, -1.4239593744277954, 1.1299718618392944, 
256, 1332602612, 96.44674682617188, -39.087501525878906, -54.801963806152344, 6.046559810638428, 7.818698883056641, -0.1848248392343521, 3.1005260944366455, -1.5144799947738647, 1.2080440521240234, 
257, 1332610945, 96.47692108154297, -39.09452819824219, -54.81428527832031, 6.050797462463379, 7.8133440017700195, -0.1311921626329422, 3.208029270172119, -1.5123540163040161, 1.2314555644989014, 
258, 1332619278, 96.46411895751953, -39.09125518798828, -54.80160903930664, 6.04684591293335, 7.804551124572754, -0.15615348517894745, 3.1475284099578857, -1.4259059429168701, 1.2245651483535767, 
259, 1332627611, 96.49315643310547, -39.097808837890625, -54.81307601928711, 6.052009582519531, 7.805267810821533, -0.15957701206207275, 3.1474130153656006, -1.4438999891281128, 1.1714286804199219, 
260, 1332635944, 96.48005676269531, -39.09516143798828, -54.800594329833984, 6.028056621551514, 7.799466609954834, -0.1513543725013733, 3.1461832523345947, -1.4420043230056763, 1.311025857925415, 
261, 1332644277, 96.50785827636719, -39.10244369506836, -54.81106948852539, 6.031339645385742, 7.798142433166504, -0.1563313901424408, 3.0860674381256104, -1.3505618572235107, 1.251217007637024, 
262, 1332652610, 96.49276733398438, -39.10008239746094, -54.79692459106445, 6.021901607513428, 7.798587322235107, -0.12177395820617676, 3.112142562866211, -1.2507175207138062, 1.336512565612793, 
263, 1332660943, 96.52070617675781, -39.10783386230469, -54.806339263916016, 6.022643566131592, 7.797445774078369, -0.14112058281898499, 3.1917896270751953, -1.2514986991882324, 1.3016129732131958, 
264, 1332669276, 96.50513458251953, -39.10580825805664, -54.791412353515625, 6.018231391906738, 7.800364971160889, -0.15896162390708923, 3.0917153358459473, -1.2763957977294922, 1.3929277658462524, 
265, 1332677609, 96.5334243774414, -39.11342239379883, -54.80261993408203, 6.013556003570557, 7.808544158935547, -0.14963482320308685, 3.108914852142334, -1.4281983375549316, 1.3097965717315674, 
266, 1332685942, 96.51847076416016, -39.110111236572266, -54.79014205932617, 6.02850341796875, 7.802535533905029, -0.17305222153663635, 3.1802756786346436, -1.3429797887802124, 1.2549821138381958, 
267, 1332694275, 96.54515838623047, -39.116939544677734, -54.79985427856445, 6.009245872497559, 7.811753273010254, -0.16141635179519653, 3.0435471534729004, -1.3049170970916748, 1.205316185951233, 
268, 1332702608, 96.52800750732422, -39.11384201049805, -54.78392791748047, 6.032104969024658, 7.815866470336914, -0.14567692577838898, 3.049156665802002, -1.2342987060546875, 1.2862571477890015, 
269, 1332710941, 96.55463409423828, -39.12085723876953, -54.7933235168457, 6.024211883544922, 7.805816173553467, -0.18001878261566162, 3.0728373527526855, -1.2812113761901855, 1.2294321060180664, 
270, 1332719274, 96.53689575195312, -39.11756896972656, -54.77706527709961, 6.015408992767334, 7.811770439147949, -0.17570891976356506, 3.0308303833007812, -1.2378463745117188, 1.2755120992660522, 
271, 1332727607, 96.56306457519531, -39.124183654785156, -54.7856330871582, 6.017694473266602, 7.804505825042725, -0.15550358593463898, 3.091228723526001, -1.2176110744476318, 1.177332878112793, 
272, 1332735940, 96.5455093383789, -39.120845794677734, -54.770450592041016, 6.006641387939453, 7.816302299499512, -0.1646481603384018, 3.0680477619171143, -1.2791621685028076, 1.2870640754699707, 
273, 1332744273, 96.57332611083984, -39.12786102294922, -54.77924346923828, 6.010815143585205, 7.812361240386963, -0.1468047797679901, 3.2846155166625977, -1.2402796745300293, 1.2344268560409546, 
274, 1332752606, 96.55535125732422, -39.12332534790039, -54.7618522644043, 6.023296356201172, 7.827141761779785, -0.16732650995254517, 3.1198909282684326, -1.2347726821899414, 1.153050422668457, 
275, 1332760939, 96.58126831054688, -39.130916595458984, -54.77041244506836, 6.031872749328613, 7.823795318603516, -0.17205403745174408, 3.085081100463867, -1.217585563659668, 1.3058136701583862, 
276, 1332769272, 96.56439971923828, -39.127037048339844, -54.75395584106445, 6.035678863525391, 7.827091217041016, -0.16990242898464203, 3.2122039794921875, -1.3390737771987915, 1.2558915615081787, 
277, 1332777605, 96.59109497070312, -39.133365631103516, -54.76326370239258, 6.026269435882568, 7.811385154724121, -0.19080723822116852, 3.131673812866211, -1.311538577079773, 1.1675738096237183, 
278, 1332785938, 96.57337951660156, -39.12939453125, -54.748409271240234, 6.0391154289245605, 7.808549404144287, -0.1478419452905655, 3.1582858562469482, -1.335846185684204, 1.2604763507843018, 
279, 1332794271, 96.60066986083984, -39.13605499267578, -54.7580680847168, 6.031248569488525, 7.809248447418213, -0.15599611401557922, 3.1913154125213623, -1.3477952480316162, 1.2159972190856934, 
280, 1332802604, 96.58238220214844, -39.131431579589844, -54.74269104003906, 6.0192952156066895, 7.797919750213623, -0.1587517410516739, 3.1228878498077393, -1.3673006296157837, 1.192880630493164, 
281, 1332810937, 96.60961151123047, -39.13806915283203, -54.753318786621094, 6.0507941246032715, 7.815128803253174, -0.16763044893741608, 3.122016191482544, -1.4437588453292847, 1.230789303779602, 
282, 1332819270, 96.59153747558594, -39.13359451293945, -54.73969268798828, 6.036789417266846, 7.8131279945373535, -0.1843709945678711, 3.147195339202881, -1.4231908321380615, 1.2287659645080566, 
283, 1332827603, 96.61792755126953, -39.14071273803711, -54.74892807006836, 6.060197830200195, 7.8028435707092285, -0.18005569279193878, 3.138179302215576, -1.3179165124893188, 1.2763829231262207, 
284, 1332835936, 96.59906768798828, -39.13677215576172, -54.73344802856445, 6.037382125854492, 7.802764415740967, -0.15756547451019287, 3.149397611618042, -1.3530845642089844, 1.2965412139892578, 
285, 1332844269, 96.62614440917969, -39.1436767578125, -54.74334716796875, 6.0289435386657715, 7.789165496826172, -0.16194230318069458, 3.183849334716797, -1.385793924331665, 1.2631915807724, 
286, 1332852602, 96.60674285888672, -39.13932800292969, -54.72652053833008, 6.033583164215088, 7.802206993103027, -0.15593896806240082, 3.079420328140259, -1.423959493637085, 1.2670594453811646, 
287, 1332860935, 96.63297271728516, -39.145633697509766, -54.736236572265625, 6.0234174728393555, 7.811716556549072, -0.1817704439163208, 3.1064305305480957, -1.3881635665893555, 1.1981443166732788, 
288, 1332869268, 96.61375427246094, -39.1412467956543, -54.72208786010742, 6.052088737487793, 7.803313255310059, -0.14829812943935394, 3.12324595451355, -1.4575779438018799, 1.2730786800384521, 
289, 1332877601, 96.63990020751953, -39.147613525390625, -54.73237228393555, 6.045805931091309, 7.813875675201416, -0.1376207172870636, 3.066075325012207, -1.4436312913894653, 1.2146013975143433, 
290, 1332885934, 96.61943054199219, -39.14364242553711, -54.7167854309082, 6.018529891967773, 7.791210174560547, -0.17469613254070282, 3.1231696605682373, -1.331133484840393, 1.3205164670944214, 
291, 1332894267, 96.64595031738281, -39.150474548339844, -54.72676467895508, 6.035113334655762, 7.817067623138428, -0.16546615958213806, 3.1459403038024902, -1.4140210151672363, 1.2712345123291016, 
292, 1332902600, 96.62510681152344, -39.14582061767578, -54.70854568481445, 6.032347202301025, 7.795565128326416, -0.15803158283233643, 3.1565961837768555, -1.2976044416427612, 1.246593713760376, 
293, 1332910933, 96.65118408203125, -39.152503967285156, -54.7181396484375, 6.027968883514404, 7.799810886383057, -0.139067143201828, 3.1330559253692627, -1.3901740312576294, 1.2552509307861328, 
294, 1332919266, 96.62986755371094, -39.147647857666016, -54.702571868896484, 6.028778553009033, 7.807064056396484, -0.1634625494480133, 3.1579790115356445, -1.2908934354782104, 1.2264095544815063, 
295, 1332927599, 96.65520477294922, -39.155120849609375, -54.71174621582031, 6.033799171447754, 7.8007097244262695, -0.16397900879383087, 3.091099977493286, -1.3463736772537231, 1.3505873680114746, 
296, 1332935932, 96.63394927978516, -39.150482177734375, -54.69457244873047, 6.02100944519043, 7.79951810836792, -0.1603502482175827, 3.215585231781006, -1.2750893831253052, 1.264779806137085, 
297, 1332944265, 96.65815734863281, -39.157196044921875, -54.70337677001953, 6.006015300750732, 7.808877944946289, -0.17490428686141968, 2.9969937801361084, -1.3302112817764282, 1.2618597745895386, 
298, 1332952598, 96.63554382324219, -39.15206527709961, -54.68479919433594, 6.02998161315918, 7.810470104217529, -0.1386367678642273, 3.1058027744293213, -1.275447964668274, 1.2170603275299072, 
299, 1332960931, 96.66014862060547, -39.15879821777344, -54.693729400634766, 6.023820400238037, 7.810811996459961, -0.14858335256576538, 3.0478124618530273, -1.3491657972335815, 1.2699538469314575, 
300, 1332969264, 96.63715362548828, -39.153446197509766, -54.67613220214844, 6.018515110015869, 7.802548885345459, -0.16661663353443146, 3.135976552963257, -1.2366424798965454, 1.197055697441101, 
301, 1332977597, 96.66114044189453, -39.159854888916016, -54.68387985229492, 6.028862476348877, 7.802175045013428, -0.17565640807151794, 3.075578212738037, -1.2528051137924194, 1.224668025970459, 
302, 1332985930, 96.63813781738281, -39.15570068359375, -54.66830062866211, 6.028592109680176, 7.790195941925049, -0.1655915528535843, 3.1229639053344727, -1.2908934354782104, 1.3575286865234375, 
303, 1332994263, 96.66139221191406, -39.16181182861328, -54.675228118896484, 6.030454158782959, 7.802677154541016, -0.17787034809589386, 3.061516046524048, -1.1847480535507202, 1.1825324296951294, 
304, 1333002596, 96.63775634765625, -39.15589904785156, -54.65837860107422, 6.010621070861816, 7.798189640045166, -0.1620212346315384, 3.0564827919006348, -1.350203275680542, 1.1663826704025269, 
305, 1333010929, 96.66150665283203, -39.16222381591797, -54.66633987426758, 6.024772644042969, 7.8012309074401855, -0.17177420854568481, 3.055138111114502, -1.2869232892990112, 1.2245142459869385, 
306, 1333019262, 96.63729858398438, -39.15703201293945, -54.648460388183594, 6.016923904418945, 7.830204486846924, -0.17628473043441772, 3.0930724143981934, -1.2580302953720093, 1.252612829208374, 
307, 1333027595, 96.6624984741211, -39.162445068359375, -54.657386779785156, 6.05134391784668, 7.826061248779297, -0.17706112563610077, 3.1695313453674316, -1.395374059677124, 1.133430004119873, 
308, 1333035928, 96.63909149169922, -39.15697479248047, -54.638092041015625, 6.0274529457092285, 7.802348613739014, -0.18072232604026794, 3.154366970062256, -1.3526235818862915, 1.2427000999450684, 
309, 1333044261, 96.66362762451172, -39.16374588012695, -54.64662170410156, 6.034459590911865, 7.799522876739502, -0.18191438913345337, 3.1314938068389893, -1.3498573303222656, 1.2958498001098633, 
310, 1333052594, 96.64041900634766, -39.157997131347656, -54.63112258911133, 6.036619663238525, 7.798554420471191, -0.1088976040482521, 3.14998722076416, -1.4360237121582031, 1.2258459329605103, 
311, 1333060927, 96.66304016113281, -39.164573669433594, -54.638668060302734, 6.028999328613281, 7.814187526702881, -0.06555724143981934, 2.9916656017303467, -1.2673026323318481, 1.26790452003479, 
312, 1333069260, 96.63658905029297, -39.159366607666016, -54.62236404418945, 6.0289483070373535, 7.798857688903809, -0.015985559672117233, 3.071249485015869, -1.1190731525421143, 1.2564551830291748, 
313, 1333077593, 96.656982421875, -39.16521453857422, -54.62617492675781, 6.030439853668213, 7.790616035461426, -0.043584853410720825, 3.022249460220337, -0.9332931637763977, 1.1457760334014893, 
314, 1333085926, 96.62740325927734, -39.160438537597656, -54.60368728637695, 6.017525672912598, 7.787862300872803, -0.03917975351214409, 2.9718148708343506, -0.8423625826835632, 1.290470838546753, 
315, 1333094259, 96.64649963378906, -39.167869567871094, -54.606746673583984, 6.037482261657715, 7.819609642028809, -0.07709826529026031, 2.9366209506988525, -0.8532742261886597, 1.3302496671676636, 
316, 1333102592, 96.6162338256836, -39.16252899169922, -54.585880279541016, 6.039510726928711, 7.836296558380127, -0.12283729016780853, 2.9010682106018066, -0.9035293459892273, 1.2363221645355225, 
317, 1333110925, 96.63412475585938, -39.16919708251953, -54.588863372802734, 6.006810188293457, 7.848713397979736, -0.16006752848625183, 2.8104448318481445, -0.8623927235603333, 1.245978832244873, 
318, 1333119258, 96.60276794433594, -39.16340255737305, -54.5684928894043, 5.997168064117432, 7.840832233428955, -0.18830886483192444, 2.7972283363342285, -0.9281445741653442, 1.1969531774520874, 
319, 1333127591, 96.62271118164062, -39.169342041015625, -54.57391357421875, 6.022672653198242, 7.833693027496338, -0.2115517109632492, 2.88569974899292, -1.1024494171142578, 1.1890127658843994, 
320, 1333135924, 96.5931625366211, -39.16285705566406, -54.555816650390625, 6.026845932006836, 7.831481456756592, -0.19735285639762878, 2.7853176593780518, -1.2492445707321167, 1.1668307781219482, 
321, 1333144257, 96.61284637451172, -39.168636322021484, -54.5627326965332, 6.029928684234619, 7.817383289337158, -0.18869233131408691, 2.7548110485076904, -1.2530099153518677, 1.1927781105041504, 
322, 1333152590, 96.58512878417969, -39.16241455078125, -54.54781723022461, 6.054893970489502, 7.824301719665527, -0.2049047201871872, 2.8552443981170654, -1.463610291481018, 1.233274221420288, 
323, 1333160923, 96.60734558105469, -39.16902542114258, -54.55753707885742, 6.022881507873535, 7.806701183319092, -0.13417920470237732, 2.858548879623413, -1.5078718662261963, 1.3253318071365356, 
324, 1333169256, 96.57823944091797, -39.16301727294922, -54.54251480102539, 6.019412994384766, 7.799661159515381, -0.15433670580387115, 2.7606253623962402, -1.4159420728683472, 1.2623463869094849, 
325, 1333177589, 96.5993881225586, -39.16926574707031, -54.55174255371094, 6.025125503540039, 7.80450439453125, -0.1542973816394806, 2.782628297805786, -1.4711664915084839, 1.2806349992752075, 
326, 1333185922, 96.56910705566406, -39.1628303527832, -54.53227233886719, 6.0071330070495605, 7.788509845733643, -0.12928546965122223, 2.764518976211548, -1.2868976593017578, 1.2081466913223267, 
327, 1333194255, 96.588623046875, -39.169036865234375, -54.539276123046875, 6.035207748413086, 7.785796642303467, -0.1462508738040924, 2.7649285793304443, -1.2749100923538208, 1.258247971534729, 
328, 1333202588, 96.55894470214844, -39.16330337524414, -54.52098083496094, 6.022335529327393, 7.787264347076416, -0.11456605046987534, 2.893435478210449, -1.2515757083892822, 1.291879653930664, 
329, 1333210921, 96.57744598388672, -39.16957092285156, -54.52729797363281, 6.025272846221924, 7.80251407623291, -0.1439145803451538, 2.711087465286255, -1.2151776552200317, 1.2653944492340088, 
330, 1333219254, 96.54598236083984, -39.16209030151367, -54.508270263671875, 6.017980575561523, 7.809538841247559, -0.14686144888401031, 2.8053224086761475, -1.1663826704025269, 1.0792814493179321, 
331, 1333227587, 96.56372833251953, -39.16830825805664, -54.512874603271484, 6.009613037109375, 7.811010360717773, -0.16186052560806274, 2.76129150390625, -1.0635414123535156, 1.2456971406936646, 
332, 1333235920, 96.53075408935547, -39.161903381347656, -54.492122650146484, 6.023766994476318, 7.79315185546875, -0.14946289360523224, 2.7475366592407227, -1.0398995876312256, 1.204867959022522, 
333, 1333244253, 96.54837799072266, -39.16731643676758, -54.49540328979492, 6.02360200881958, 7.8088908195495605, -0.16519096493721008, 2.8647220134735107, -0.9613407254219055, 1.1390907764434814, 
334, 1333252586, 96.51663970947266, -39.16079330444336, -54.472652435302734, 6.049454689025879, 7.817645072937012, -0.16877351701259613, 2.872713565826416, -1.0993245840072632, 1.210349440574646, 
335, 1333260919, 96.53424072265625, -39.16643524169922, -54.476905822753906, 6.057788372039795, 7.804200172424316, -0.16609494388103485, 2.7974586486816406, -1.057957410812378, 1.1833263635635376, 
336, 1333269252, 96.50155639648438, -39.16045379638672, -54.455596923828125, 6.033355712890625, 7.82004451751709, -0.18948277831077576, 2.849327325820923, -1.0183836221694946, 1.2690829038619995, 
337, 1333277585, 96.52005004882812, -39.16632843017578, -54.46019744873047, 6.059398174285889, 7.804271221160889, -0.19497790932655334, 2.893153429031372, -1.0927672386169434, 1.2191095352172852, 
338, 1333285918, 96.48808288574219, -39.15983200073242, -54.44229507446289, 6.046205997467041, 7.79313325881958, -0.1854972392320633, 2.903219699859619, -1.0912303924560547, 1.2220039367675781, 
339, 1333294251, 96.50672912597656, -39.1666259765625, -54.44716262817383, 6.03583288192749, 7.818932056427002, -0.14101862907409668, 2.9065754413604736, -1.1071627140045166, 1.3367302417755127, 
340, 1333302584, 96.47583770751953, -39.16033935546875, -54.42884826660156, 6.039135456085205, 7.823997497558594, -0.1519903540611267, 2.9109554290771484, -1.2718621492385864, 1.2737703323364258, 
341, 1333310917, 96.4948501586914, -39.16630554199219, -54.43498992919922, 6.042356014251709, 7.836163520812988, -0.14195336401462555, 2.8669116497039795, -1.2437504529953003, 1.258235216140747, 
342, 1333319250, 96.46427917480469, -39.1602668762207, -54.41960144042969, 6.052995204925537, 7.842562675476074, -0.15365412831306458, 2.9612877368927, -1.2868977785110474, 1.3128321170806885, 
343, 1333327583, 96.48519897460938, -39.16606521606445, -54.4267578125, 6.02864408493042, 7.801302909851074, -0.17416870594024658, 3.0332374572753906, -1.3434793949127197, 1.2507174015045166, 
344, 1333335916, 96.45502471923828, -39.15976333618164, -54.409061431884766, 6.0280232429504395, 7.8126912117004395, -0.13600879907608032, 3.0176644325256348, -1.3100529909133911, 1.2930835485458374, 
345, 1333344249, 96.47407531738281, -39.16557312011719, -54.414005279541016, 6.019941806793213, 7.804893493652344, -0.1389031708240509, 2.9879519939422607, -1.1490931510925293, 1.2352466583251953, 
346, 1333352582, 96.44166564941406, -39.15935134887695, -54.39339065551758, 6.023268222808838, 7.806912899017334, -0.1458026021718979, 2.9470717906951904, -1.0958666801452637, 1.288421869277954, 
347, 1333360915, 96.46039581298828, -39.16508483886719, -54.39690399169922, 6.00423526763916, 7.803264617919922, -0.15003447234630585, 3.072068929672241, -1.024940848350525, 1.2160104513168335, 
348, 1333369248, 96.42835998535156, -39.15873718261719, -54.37751007080078, 6.024050235748291, 7.7845659255981445, -0.16413185000419617, 3.0226335525512695, -1.0957130193710327, 1.2793285846710205, 
349, 1333377581, 96.44689178466797, -39.164249420166016, -54.380218505859375, 6.006679534912109, 7.782016277313232, -0.17247019708156586, 3.1227850914001465, -0.9581133127212524, 1.187578558921814, 
350, 1333385914, 96.41357421875, -39.15727615356445, -54.357879638671875, 6.012825012207031, 7.788426876068115, -0.19705912470817566, 2.992434501647949, -0.9794243574142456, 1.19866943359375, 
351, 1333394247, 96.43155670166016, -39.163108825683594, -54.36092758178711, 6.015161037445068, 7.792629718780518, -0.19105276465415955, 3.0427536964416504, -0.9913991093635559, 1.2341580390930176, 
352, 1333402580, 96.40010070800781, -39.1560173034668, -54.340614318847656, 6.016421318054199, 7.818121433258057, -0.22560657560825348, 3.173117160797119, -1.0510931015014648, 1.2000271081924438, 
353, 1333410913, 96.41940307617188, -39.161468505859375, -54.3459358215332, 6.017262935638428, 7.813633918762207, -0.20546197891235352, 3.045020341873169, -1.2119760513305664, 1.2158054113388062, 
354, 1333419246, 96.38859558105469, -39.15476608276367, -54.33248519897461, 6.032280445098877, 7.822999954223633, -0.20891334116458893, 3.1152544021606445, -1.2347725629806519, 1.2679557800292969, 
355, 1333427579, 96.40863037109375, -39.15977096557617, -54.338409423828125, 6.004432201385498, 7.826883792877197, -0.21594978868961334, 3.102677822113037, -1.2732963562011719, 1.1744126081466675, 
356, 1333435912, 96.37881469726562, -39.152530670166016, -54.32102966308594, 6.0375261306762695, 7.833164691925049, -0.22040732204914093, 3.1210689544677734, -1.3855637311935425, 1.2389862537384033, 
357, 1333444245, 96.40027618408203, -39.157596588134766, -54.33013153076172, 6.031455039978027, 7.84881067276001, -0.21623112261295319, 3.043355703353882, -1.5789512395858765, 1.2196218967437744, 
358, 1333452578, 96.37178802490234, -39.149574279785156, -54.316322326660156, 6.035421848297119, 7.832139492034912, -0.19083642959594727, 3.1147165298461914, -1.6163479089736938, 1.1741820573806763, 
359, 1333460911, 96.39512634277344, -39.1550178527832, -54.325809478759766, 6.026042938232422, 7.823735237121582, -0.18724873661994934, 3.2534427642822266, -1.6126590967178345, 1.2744616270065308, 
360, 1333469244, 96.3670654296875, -39.14680862426758, -54.313785552978516, 6.026452541351318, 7.807143688201904, -0.18513017892837524, 3.164689540863037, -1.6405277252197266, 1.1613236665725708, 
361, 1333477577, 96.38982391357422, -39.15163040161133, -54.323814392089844, 6.0344462394714355, 7.808466911315918, -0.15113043785095215, 3.1570308208465576, -1.6758750677108765, 1.209017276763916, 
362, 1333485910, 96.36024475097656, -39.14432907104492, -54.31125259399414, 6.030276298522949, 7.788569450378418, -0.15911553800106049, 3.0678677558898926, -1.5449094772338867, 1.2639086246490479, 
363, 1333494243, 96.38237762451172, -39.149662017822266, -54.31975555419922, 6.036946773529053, 7.782078742980957, -0.13835002481937408, 3.2131521701812744, -1.532025694847107, 1.2593494653701782, 
364, 1333502576, 96.35346984863281, -39.14242935180664, -54.303428649902344, 6.041173458099365, 7.779667854309082, -0.14980922639369965, 3.1659955978393555, -1.5401707887649536, 1.2815055847167969, 
365, 1333510909, 96.3741683959961, -39.14897918701172, -54.3101806640625, 6.019158363342285, 7.795593738555908, -0.13899081945419312, 3.184156656265259, -1.3634841442108154, 1.392927646636963, 
366, 1333519242, 96.34375, -39.14159393310547, -54.295223236083984, 6.038363933563232, 7.7825117111206055, -0.14140933752059937, 3.131903886795044, -1.3892521858215332, 1.2421624660491943, 
367, 1333527575, 96.36228942871094, -39.146934509277344, -54.30012893676758, 6.024309158325195, 7.813570976257324, -0.13736984133720398, 3.081622838973999, -1.2120270729064941, 1.233991265296936, 
368, 1333535908, 96.33226776123047, -39.139854431152344, -54.27983474731445, 6.023088455200195, 7.8024773597717285, -0.1464664489030838, 3.374188184738159, -1.1683290004730225, 1.2643697261810303, 
369, 1333544241, 96.35195922851562, -39.14512252807617, -54.28452682495117, 6.034614086151123, 7.787638187408447, -0.17311502993106842, 3.246680974960327, -1.2016533613204956, 1.228971004486084, 
370, 1333552574, 96.32084655761719, -39.13787841796875, -54.26472091674805, 6.039338111877441, 7.830500602722168, -0.1482767015695572, 3.272141218185425, -1.1532423496246338, 1.2470288276672363, 
371, 1333560907, 96.34022521972656, -39.14326858520508, -54.26903533935547, 6.04157829284668, 7.813687324523926, -0.17839254438877106, 3.2468602657318115, -1.1705833673477173, 1.2461581230163574, 
372, 1333569240, 96.30931854248047, -39.13557434082031, -54.25798416137695, 6.039817810058594, 7.828901767730713, -0.1651555299758911, 3.2731661796569824, -1.2155874967575073, 1.1931110620498657, 
373, 1333577573, 96.32953643798828, -39.14067077636719, -54.263938903808594, 6.046789169311523, 7.812775611877441, -0.17902135848999023, 3.2477567195892334, -1.3237820863723755, 1.2279975414276123, 
374, 1333585906, 96.2995834350586, -39.13362503051758, -54.24637985229492, 6.032594203948975, 7.852011203765869, -0.19237008690834045, 3.2520852088928223, -1.3798002004623413, 1.3068125247955322, 
375, 1333594239, 96.32110595703125, -39.140098571777344, -54.25346374511719, 6.008039951324463, 7.8138813972473145, -0.2148912250995636, 3.3253934383392334, -1.4211161136627197, 1.4115235805511475, 
376, 1333602572, 96.29261779785156, -39.1328125, -54.2360725402832, 6.045687675476074, 7.8148980140686035, -0.20459090173244476, 3.3537228107452393, -1.483230710029602, 1.295644760131836, 
377, 1333610905, 96.31378936767578, -39.13880157470703, -54.2424201965332, 6.030952453613281, 7.839883804321289, -0.15140850841999054, 3.3515968322753906, -1.366455316543579, 1.349895715713501, 
378, 1333619238, 96.28459167480469, -39.13200759887695, -54.22898483276367, 6.043242454528809, 7.815110206604004, -0.1066475510597229, 3.326622486114502, -1.423344373703003, 1.349178433418274, 
379, 1333627571, 96.30718994140625, -39.13680648803711, -54.23728942871094, 6.036869525909424, 7.823133945465088, -0.07349546998739243, 3.3898773193359375, -1.566054344177246, 1.2308279275894165, 
380, 1333635904, 96.27737426757812, -39.12998962402344, -54.223838806152344, 6.031116962432861, 7.8218889236450195, -0.05022045969963074, 3.2333614826202393, -1.4671704769134521, 1.3581947088241577, 
381, 1333644237, 96.29773712158203, -39.1358757019043, -54.22971725463867, 6.009218692779541, 7.80101203918457, -0.07966317236423492, 3.320040464401245, -1.329980731010437, 1.3413407802581787, 
382, 1333652570, 96.26538848876953, -39.128204345703125, -54.212310791015625, 5.999652862548828, 7.809835910797119, -0.06408212333917618, 3.1304311752319336, -1.2699795961380005, 1.2360533475875854, 
383, 1333660903, 96.28437042236328, -39.1328125, -54.21739959716797, 6.003063201904297, 7.797712326049805, -0.025928232818841934, 3.2238330841064453, -1.2826968431472778, 1.1859644651412964, 
384, 1333669236, 96.25127410888672, -39.12551498413086, -54.19963455200195, 6.003655433654785, 7.806696891784668, -0.02677958831191063, 3.205493450164795, -1.093766212463379, 1.2655479907989502, 
385, 1333677569, 96.26766204833984, -39.13107681274414, -54.20183181762695, 5.998137950897217, 7.807707786560059, -0.0013696136884391308, 3.1481435298919678, -1.00516676902771, 1.2763574123382568, 
386, 1333685902, 96.2315902709961, -39.12424850463867, -54.18049240112305, 6.005505561828613, 7.801324844360352, -0.02223842218518257, 2.9710724353790283, -0.9771959185600281, 1.3167766332626343, 
387, 1333694235, 96.24561309814453, -39.12899398803711, -54.18137741088867, 6.000509738922119, 7.795439720153809, -0.03447719290852547, 2.973479747772217, -0.8979325294494629, 1.1712621450424194, 
388, 1333702568, 96.20759582519531, -39.12180709838867, -54.15825653076172, 6.016743183135986, 7.803030967712402, -0.046967677772045135, 2.9060373306274414, -0.805324375629425, 1.2594774961471558, 
389, 1333710901, 96.22035217285156, -39.126007080078125, -54.1578483581543, 6.03508996963501, 7.82465124130249, -0.04340839385986328, 2.9317026138305664, -0.7943614721298218, 1.0977237224578857, 
390, 1333719234, 96.18110656738281, -39.11808395385742, -54.13510513305664, 6.023050308227539, 7.819594383239746, -0.02327929064631462, 2.7906453609466553, -0.8105497360229492, 1.1737468242645264, 
391, 1333727567, 96.1917495727539, -39.1230583190918, -54.1346549987793, 6.039059162139893, 7.8246378898620605, -0.008984802290797234, 2.695155382156372, -0.7840133309364319, 1.1931110620498657, 
392, 1333735900, 96.1504135131836, -39.11505126953125, -54.116912841796875, 6.027553081512451, 7.823055267333984, 0.040559519082307816, 2.54421067237854, -0.8350112438201904, 1.1704680919647217, 
393, 1333744233, 96.15863037109375, -39.12044906616211, -54.115806579589844, 6.037631988525391, 7.8252034187316895, 0.08726387470960617, 2.4736177921295166, -0.7190556526184082, 1.240190029144287, 
394, 1333752566, 96.1141128540039, -39.11266326904297, -54.09047317504883, 6.032958030700684, 7.821074962615967, 0.10536273568868637, 2.3691885471343994, -0.6268059611320496, 1.1798173189163208, 
395, 1333760899, 96.11808776855469, -39.11769485473633, -54.086788177490234, 6.057268142700195, 7.796387672424316, 0.11373651027679443, 2.166349411010742, -0.49280503392219543, 1.177025318145752, 
396, 1333769232, 96.06944274902344, -39.11074447631836, -54.06269073486328, 6.0588860511779785, 7.813228130340576, 0.1468580961227417, 2.1211917400360107, -0.36253106594085693, 1.251024842262268, 
397, 1333777565, 96.06853485107422, -39.11593246459961, -54.05474090576172, 6.046899795532227, 7.811485767364502, 0.1360030472278595, 1.9197100400924683, -0.09803847968578339, 1.1605042219161987, 
398, 1333785898, 96.01478576660156, -39.10914993286133, -54.02549743652344, 6.03259801864624, 7.821099281311035, 0.13512064516544342, 1.9171230792999268, 0.08234976977109909, 1.2216708660125732, 
399, 1333794231, 96.01068115234375, -39.114322662353516, -54.01588439941406, 6.0306396484375, 7.807788848876953, 0.17645815014839172, 1.679089903831482, 0.05120285227894783, 1.1461856365203857, 
400, 1333802564, 95.95197296142578, -39.10771179199219, -53.98256301879883, 6.034034729003906, 7.7966413497924805, 0.16150614619255066, 1.5039910078048706, 0.2619567811489105, 1.2358611822128296, 
401, 1333810897, 95.94347381591797, -39.11329650878906, -53.969539642333984, 6.013369083404541, 7.801407337188721, 0.15340229868888855, 1.421180248260498, 0.36746180057525635, 1.1667540073394775, 
402, 1333819230, 95.88048553466797, -39.106143951416016, -53.934879302978516, 6.008631229400635, 7.806487560272217, 0.16288138926029205, 1.2580431699752808, 0.5263212323188782, 1.1435987949371338, 
403, 1333827563, 95.86639404296875, -39.11194610595703, -53.91789627075195, 5.9991559982299805, 7.809600830078125, 0.16052934527397156, 1.0619149208068848, 0.7314144372940063, 1.1619640588760376, 
404, 1333835896, 95.80024719238281, -39.10552978515625, -53.88277053833008, 6.001328468322754, 7.798131942749023, 0.18419302999973297, 1.0445741415023804, 0.6897914409637451, 1.22246515750885, 
405, 1333844229, 95.78431701660156, -39.111392974853516, -53.865779876708984, 6.0035529136657715, 7.834773540496826, 0.17168253660202026, 0.8548750877380371, 0.7306972742080688, 1.1781010627746582, 
406, 1333852562, 95.71333312988281, -39.105133056640625, -53.826114654541016, 6.014146327972412, 7.824215888977051, 0.18352049589157104, 0.6598482728004456, 0.8830507397651672, 1.232531189918518, 
407, 1333860895, 95.69303894042969, -39.111331939697266, -53.806636810302734, 6.000985622406006, 7.839681625366211, 0.16678954660892487, 0.5344922542572021, 0.95735764503479, 1.2007954120635986, 
408, 1333869228, 95.61746215820312, -39.104454040527344, -53.76279067993164, 5.998445510864258, 7.841883659362793, 0.13314302265644073, 0.3218940794467926, 1.0974675416946411, 1.149771809577942, 
409, 1333877561, 95.59294128417969, -39.10995101928711, -53.74110412597656, 6.022243022918701, 7.847741603851318, 0.15862144529819489, 0.20826932787895203, 1.145417332649231, 1.105151891708374, 
410, 1333885894, 95.51559448242188, -39.102561950683594, -53.69751739501953, 6.028852462768555, 7.840459823608398, 0.13769938051700592, 0.21942433714866638, 1.1930981874465942, 1.0904875993728638, 
411, 1333894227, 95.48829650878906, -39.10854721069336, -53.674652099609375, 6.009999752044678, 7.855169296264648, 0.13082891702651978, -0.022860703989863396, 1.2563782930374146, 1.1597356796264648, 
412, 1333902560, 95.40692138671875, -39.101715087890625, -53.629783630371094, 6.023279666900635, 7.837996482849121, 0.13959816098213196, -0.12370394170284271, 1.3374727964401245, 1.1577122211456299, 
413, 1333910893, 95.3773193359375, -39.10730743408203, -53.60589599609375, 6.0319294929504395, 7.818786144256592, 0.13628149032592773, -0.21079236268997192, 1.3433897495269775, 1.1142704486846924, 
414, 1333919226, 95.29350280761719, -39.10005187988281, -53.55905532836914, 6.039167881011963, 7.835866928100586, 0.09662645310163498, -0.3097913861274719, 1.4325019121170044, 1.109788179397583, 
415, 1333927559, 95.26128387451172, -39.10552978515625, -53.53450012207031, 6.030089855194092, 7.814424991607666, 0.13468173146247864, -0.45986518263816833, 1.396103858947754, 1.1005667448043823, 
416, 1333935892, 95.17457580566406, -39.09791564941406, -53.48691940307617, 6.017084121704102, 7.805436611175537, 0.12793295085430145, -0.6403174996376038, 1.4374197721481323, 1.0804085731506348, 
417, 1333944225, 95.13923645019531, -39.10302734375, -53.460662841796875, 6.046910762786865, 7.8209123611450195, 0.0984358936548233, -0.6916227340698242, 1.5439748764038086, 1.0527193546295166, 
418, 1333952558, 95.05065155029297, -39.09553527832031, -53.413536071777344, 6.034648418426514, 7.78205680847168, 0.11225908249616623, -0.726611852645874, 1.586443305015564, 1.0880929231643677, 
419, 1333960891, 95.01339721679688, -39.10101318359375, -53.385841369628906, 6.037336826324463, 7.787675380706787, 0.12992428243160248, -0.8000990152359009, 1.6807547807693481, 1.0970063209533691, 
420, 1333969224, 94.9217529296875, -39.09296798706055, -53.33662414550781, 6.026284217834473, 7.7905964851379395, 0.13824765384197235, -0.9765042662620544, 1.7101854085922241, 1.0200356245040894, 
421, 1333977557, 94.88117218017578, -39.098350524902344, -53.30732727050781, 6.028658390045166, 7.7856574058532715, 0.10966285318136215, -1.0654881000518799, 1.821479320526123, 1.0823551416397095, 
422, 1333985890, 94.78703308105469, -39.09091567993164, -53.25343322753906, 6.0358781814575195, 7.794369697570801, 0.13634389638900757, -1.1509627103805542, 1.8604131937026978, 1.0934460163116455, 
423, 1333994223, 94.74516296386719, -39.09663009643555, -53.22270584106445, 6.025503635406494, 7.798887729644775, 0.12422160804271698, -1.100246548652649, 1.9499859809875488, 1.1213655471801758, 
424, 1334002556, 94.64874267578125, -39.089237213134766, -53.17018508911133, 6.030651569366455, 7.807436466217041, 0.11950697004795074, -1.2446852922439575, 2.073549270629883, 1.0955207347869873, 
425, 1334010889, 94.60395050048828, -39.09476852416992, -53.136924743652344, 6.046281814575195, 7.808241367340088, 0.0876309871673584, -1.243993878364563, 2.178593158721924, 1.0909359455108643, 
426, 1334019222, 94.50637817382812, -39.08682632446289, -53.08348846435547, 6.044567584991455, 7.824238300323486, 0.08071208745241165, -1.3524956703186035, 2.1055667400360107, 1.0388622283935547, 
427, 1334027555, 94.45906066894531, -39.09128952026367, -53.04817199707031, 6.044741153717041, 7.800551414489746, 0.07142146676778793, -1.3784685134887695, 2.3549728393554688, 0.9610973596572876, 
428, 1334035888, 94.3609390258789, -39.08381652832031, -52.99172592163086, 6.042550563812256, 7.833641529083252, 0.0355653241276741, -1.2339528799057007, 2.3463406562805176, 1.0919604301452637, 
429, 1334044221, 94.31468963623047, -39.088687896728516, -52.957584381103516, 6.03309965133667, 7.819194793701172, 0.06288272142410278, -1.3274192810058594, 2.2439863681793213, 1.0320231914520264, 
430, 1334052554, 94.2158203125, -39.08049774169922, -52.90121078491211, 6.036450386047363, 7.81622838973999, 0.04601243510842323, -1.3668397665023804, 2.2958807945251465, 1.0238010883331299, 
431, 1334060887, 94.1697998046875, -39.085697174072266, -52.867027282714844, 6.043442726135254, 7.834872722625732, 0.0568091981112957, -1.28425931930542, 2.246675968170166, 1.0814073085784912, 
432, 1334069220, 94.07164764404297, -39.07822799682617, -52.81462860107422, 6.009715557098389, 7.813941955566406, 0.029173605144023895, -1.289689540863037, 2.3125813007354736, 1.1333531141281128, 
433, 1334077553, 94.02525329589844, -39.08382034301758, -52.7789192199707, 6.027145862579346, 7.800591945648193, 0.042927682399749756, -1.1959927082061768, 2.3894240856170654, 1.131406307220459, 
434, 1334085886, 93.92857360839844, -39.07578659057617, -52.7210578918457, 6.014096736907959, 7.814729690551758, 0.03179823234677315, -1.2009618282318115, 2.22961688041687, 1.0751575231552124, 
435, 1334094219, 93.88272857666016, -39.08185958862305, -52.68644714355469, 6.0068745613098145, 7.829427242279053, 0.025431644171476364, -1.205879807472229, 2.279615879058838, 1.2076343297958374, 
436, 1334102552, 93.78656005859375, -39.07411193847656, -52.63159942626953, 6.019158363342285, 7.799283504486084, 0.007085633464157581, -1.1660752296447754, 2.2237510681152344, 1.1354789733886719, 
437, 1334110885, 93.7427749633789, -39.07894515991211, -52.59828186035156, 6.002788543701172, 7.805531978607178, 0.012319723144173622, -1.0406296253204346, 2.1494314670562744, 1.0802419185638428, 
438, 1334119218, 93.64984893798828, -39.07109451293945, -52.54488754272461, 6.0066447257995605, 7.795749187469482, 0.009313024580478668, -0.976504385471344, 2.0061583518981934, 1.1469542980194092, 
439, 1334127551, 93.6075668334961, -39.07643127441406, -52.51271438598633, 5.987453937530518, 7.795400619506836, 0.037811603397130966, -0.9400808811187744, 2.0404043197631836, 1.1591466665267944, 
440, 1334135884, 93.51663970947266, -39.06819534301758, -52.46138000488281, 5.980243682861328, 7.805273056030273, 0.03567345067858696, -0.8251498341560364, 1.9308267831802368, 1.1288706064224243, 
441, 1334144217, 93.47677612304688, -39.07368087768555, -52.43096923828125, 6.014906883239746, 7.815977573394775, 0.024360261857509613, -0.7673640251159668, 1.8753204345703125, 1.197798490524292, 
442, 1334152550, 93.38733673095703, -39.064876556396484, -52.37875747680664, 6.0137224197387695, 7.80759859085083, 0.026554206386208534, -0.7051470875740051, 1.886334776878357, 1.0728009939193726, 
443, 1334160883, 93.34786224365234, -39.068965911865234, -52.34832000732422, 6.0064778327941895, 7.798699378967285, 0.053449392318725586, -0.7071961760520935, 1.8621035814285278, 1.0404502153396606, 
444, 1334169216, 93.26034545898438, -39.059913635253906, -52.298439025878906, 6.007416725158691, 7.800076961517334, 0.047965921461582184, -0.5305349230766296, 1.851704478263855, 1.060250163078308, 
445, 1334177549, 93.22262573242188, -39.06427764892578, -52.267723083496094, 6.0185441970825195, 7.809124946594238, 0.04762759432196617, -0.4641427993774414, 1.8856430053710938, 1.0830466747283936, 
446, 1334185882, 93.13520050048828, -39.05576705932617, -52.21903991699219, 6.01994514465332, 7.811816215515137, 0.11065918207168579, -0.5210831761360168, 1.8963241577148438, 1.1400127410888672, 
447, 1334194215, 93.09709167480469, -39.060115814208984, -52.18881607055664, 6.016626358032227, 7.830916881561279, 0.09855605661869049, -0.5331987142562866, 1.8383591175079346, 1.094496250152588, 
448, 1334202548, 93.01282501220703, -39.051734924316406, -52.14149475097656, 6.012336254119873, 7.82393741607666, 0.07600770145654678, -0.2804374396800995, 1.7477872371673584, 1.1750785112380981, 
449, 1334210881, 92.97638702392578, -39.05588912963867, -52.1108283996582, 6.006708145141602, 7.811596393585205, 0.1046154573559761, -0.2898378372192383, 1.8747057914733887, 1.0783848762512207, 
450, 1334219214, 92.89232635498047, -39.04734802246094, -52.05973815917969, 6.029810428619385, 7.807202339172363, 0.10739298164844513, -0.21660679578781128, 1.8307774066925049, 1.1557399034500122, 
451, 1334227547, 92.8576431274414, -39.05112075805664, -52.03129959106445, 6.003990173339844, 7.813465118408203, 0.13801370561122894, -0.2385837882757187, 1.657727599143982, 1.0532317161560059, 
452, 1334235880, 92.77509307861328, -39.04222869873047, -51.982051849365234, 6.0204949378967285, 7.807220458984375, 0.1581340730190277, -0.20805160701274872, 1.6510167121887207, 1.1401920318603516, 
453, 1334244213, 92.74234771728516, -39.04643249511719, -51.95465087890625, 6.018148422241211, 7.802051067352295, 0.16634540259838104, -0.0740891695022583, 1.5593944787979126, 1.1177027225494385, 
454, 1334252546, 92.66151428222656, -39.03740310668945, -51.912532806396484, 6.004402160644531, 7.796965599060059, 0.16958437860012054, -0.09224966168403625, 1.5684363842010498, 1.1554068326950073, 
455, 1334260879, 92.6282730102539, -39.04142379760742, -51.8848991394043, 5.995401859283447, 7.78849458694458, 0.1973777860403061, -0.09668093174695969, 1.5804752111434937, 1.1033844947814941, 
456, 1334269212, 92.5483627319336, -39.03218460083008, -51.838069915771484, 6.001452445983887, 7.779367923736572, 0.16631244122982025, 0.004354420118033886, 1.577913522720337, 1.1218265295028687, 
457, 1334277545, 92.51697540283203, -39.035884857177734, -51.81232833862305, 6.003976821899414, 7.779649257659912, 0.18607744574546814, -0.011180613189935684, 1.3937729597091675, 1.0826624631881714, 
458, 1334285878, 92.43877410888672, -39.02693176269531, -51.76792526245117, 6.0146684646606445, 7.797894477844238, 0.1943359076976776, 0.015547843649983406, 1.3726156949996948, 1.1727222204208374, 
459, 1334294211, 92.40792846679688, -39.031005859375, -51.74201965332031, 6.009024620056152, 7.815437316894531, 0.14050565659999847, 0.07679148018360138, 1.4064007997512817, 1.1365036964416504, 
460, 1334302544, 92.33099365234375, -39.0213623046875, -51.69982147216797, 5.994415760040283, 7.795119285583496, 0.15172722935676575, 0.13493578135967255, 1.3571445941925049, 1.1110173463821411, 
461, 1334310877, 92.30130004882812, -39.02456283569336, -51.67512893676758, 6.005862236022949, 7.805532932281494, 0.17339959740638733, 0.13493578135967255, 1.2901376485824585, 1.0428580045700073, 
462, 1334319210, 92.22545623779297, -39.015377044677734, -51.63417434692383, 6.019310474395752, 7.800002574920654, 0.1807301789522171, 0.12315323203802109, 1.219032645225525, 1.1830445528030396, 
463, 1334327543, 92.19718933105469, -39.01921463012695, -51.61052703857422, 5.997730255126953, 7.801097869873047, 0.18766914308071136, 0.24085064232349396, 1.1946735382080078, 1.1320979595184326, 
464, 1334335876, 92.12403106689453, -39.009395599365234, -51.56814956665039, 5.993009567260742, 7.818408012390137, 0.18376368284225464, 0.29036298394203186, 1.0643994808197021, 1.0993117094039917, 
465, 1334344209, 92.09806823730469, -39.01398468017578, -51.54570770263672, 5.9957451820373535, 7.829714775085449, 0.16564927995204926, 0.43667155504226685, 1.0749272108078003, 1.2323009967803955, 
466, 1334352542, 92.02777099609375, -39.00478744506836, -51.50893020629883, 5.995620250701904, 7.817871570587158, 0.18266929686069489, 0.5218899846076965, 0.965298056602478, 1.2080954313278198, 
467, 1334360875, 92.0030288696289, -39.0087890625, -51.48817443847656, 5.989626407623291, 7.80401611328125, 0.17078803479671478, 0.4677671790122986, 0.9169896245002747, 1.1762057542800903, 
468, 1334369208, 91.9339599609375, -38.998779296875, -51.453346252441406, 5.996035575866699, 7.829673767089844, 0.18649570643901825, 0.525143027305603, 0.8234975934028625, 1.1349412202835083, 
469, 1334377541, 91.91160583496094, -39.00343322753906, -51.435760498046875, 5.998438358306885, 7.78584098815918, 0.1773332804441452, 0.527192234992981, 0.6211708188056946, 1.269928216934204, 
470, 1334385874, 91.84542083740234, -38.99394607543945, -51.4014778137207, 6.002923488616943, 7.796298503875732, 0.18060928583145142, 0.7027521729469299, 0.653444766998291, 1.1990535259246826, 
471, 1334394207, 91.82483673095703, -38.99722671508789, -51.385215759277344, 5.993574619293213, 7.795440196990967, 0.18668919801712036, 0.648834228515625, 0.4919470548629761, 1.1178821325302124, 
472, 1334402540, 91.7596206665039, -38.987579345703125, -51.34963607788086, 6.008967399597168, 7.780697822570801, 0.19903500378131866, 0.6969120502471924, 0.5388723015785217, 1.1682652235031128, 
473, 1334410873, 91.74117279052734, -38.99057388305664, -51.33446502685547, 5.994633197784424, 7.765505313873291, 0.20603764057159424, 0.8294658064842224, 0.38116541504859924, 1.0909614562988281, 
474, 1334419206, 91.67952728271484, -38.9810905456543, -51.30096435546875, 5.983531951904297, 7.796319961547852, 0.23048606514930725, 0.945190966129303, 0.3541424572467804, 1.195339560508728, 
475, 1334427539, 91.66239166259766, -38.98414993286133, -51.28649139404297, 5.9749627113342285, 7.791813373565674, 0.2571232318878174, 0.9441023468971252, 0.31345421075820923, 1.1083152294158936, 
476, 1334435872, 91.60127258300781, -38.97343826293945, -51.25331497192383, 5.999740123748779, 7.786370277404785, 0.22195272147655487, 0.9770549535751343, 0.3457408845424652, 1.0615819692611694, 
477, 1334444205, 91.58599090576172, -38.97774124145508, -51.239463806152344, 6.0041279792785645, 7.779245376586914, 0.2638011574745178, 1.1293059587478638, 0.2565777599811554, 1.262704849243164, 
478, 1334452538, 91.52667999267578, -38.968017578125, -51.20927047729492, 5.992430210113525, 7.804101943969727, 0.2415085881948471, 1.1119909286499023, 0.28270432353019714, 1.1966458559036255, 
479, 1334460871, 91.51155853271484, -38.971641540527344, -51.19460678100586, 6.012654781341553, 7.803861141204834, 0.25657662749290466, 1.2240017652511597, 0.3262740969657898, 1.1860158443450928, 
480, 1334469204, 91.454833984375, -38.961910247802734, -51.16563415527344, 6.018120288848877, 7.7891845703125, 0.25374162197113037, 1.2961061000823975, 0.15778370201587677, 1.1989511251449585, 
481, 1334477537, 91.44161224365234, -38.9654655456543, -51.15184783935547, 6.010157108306885, 7.788233280181885, 0.21769733726978302, 1.3935039043426514, 0.24450065195560455, 1.1849015951156616, 
482, 1334485870, 91.38536071777344, -38.955047607421875, -51.1251220703125, 6.008655071258545, 7.810079097747803, 0.2273237407207489, 1.4005094766616821, 0.2512500286102295, 1.1346591711044312, 
483, 1334494203, 91.37246704101562, -38.9588508605957, -51.11216354370117, 6.0192131996154785, 7.803569316864014, 0.2710453271865845, 1.382912516593933, 0.165775328874588, 1.2203902006149292, 
484, 1334502536, 91.31787109375, -38.948726654052734, -51.083091735839844, 5.998565196990967, 7.792654037475586, 0.2561189830303192, 1.5014039278030396, 0.17233256995677948, 1.1502327919006348, 
485, 1334510869, 91.30717468261719, -38.95238494873047, -51.071022033691406, 6.007163047790527, 7.779348373413086, 0.24134907126426697, 1.5897986888885498, 0.07986517995595932, 1.2103238105773926, 
486, 1334519202, 91.254150390625, -38.94284439086914, -51.043304443359375, 6.01240873336792, 7.800352573394775, 0.23916344344615936, 1.602708339691162, 0.0975390076637268, 1.2297650575637817, 
487, 1334527535, 91.24502563476562, -38.946022033691406, -51.031524658203125, 5.995705604553223, 7.805278778076172, 0.2002766728401184, 1.7664602994918823, 0.04733511060476303, 1.1568413972854614, 
488, 1334535868, 91.19596862792969, -38.936649322509766, -51.00654602050781, 5.9887003898620605, 7.791358470916748, 0.20500566065311432, 1.9319024085998535, -0.04194331169128418, 1.2538423538208008, 
489, 1334544201, 91.189697265625, -38.94040298461914, -50.99739074707031, 5.9885430335998535, 7.793239116668701, 0.23773354291915894, 1.9212850332260132, -0.19617941975593567, 1.2385122776031494, 
490, 1334552534, 91.14443969726562, -38.9306526184082, -50.97739791870117, 5.985189914703369, 7.786465644836426, 0.1919715851545334, 2.0568487644195557, -0.4069717526435852, 1.235451340675354, 
491, 1334560867, 91.14141082763672, -38.93437194824219, -50.97079849243164, 5.985936164855957, 7.789398193359375, 0.1700042337179184, 2.1282870769500732, -0.4360695779323578, 1.2409071922302246, 
492, 1334569200, 91.0986557006836, -38.924434661865234, -50.95125198364258, 5.983098983764648, 7.784520626068115, 0.16446730494499207, 2.2029266357421875, -0.555585503578186, 1.2149087190628052, 
493, 1334577533, 91.09917449951172, -38.92790603637695, -50.94801330566406, 5.982004642486572, 7.776544570922852, 0.1629553586244583, 2.311275005340576, -0.7529175877571106, 1.2197755575180054, 
494, 1334585866, 91.06024932861328, -38.917076110839844, -50.93461990356445, 5.993232727050781, 7.800522804260254, 0.197361022233963, 2.4130144119262695, -0.8120864629745483, 1.1281276941299438, 
495, 1334594199, 91.06437683105469, -38.92011260986328, -50.932647705078125, 5.9951558113098145, 7.807009696960449, 0.18397755920886993, 2.6606528759002686, -0.8733813762664795, 1.1756421327590942, 
496, 1334602532, 91.02935028076172, -38.910037994384766, -50.91831588745117, 5.983025550842285, 7.801271438598633, 0.17832575738430023, 2.7213332653045654, -0.9654902815818787, 1.1904984712600708, 
497, 1334610865, 91.03604125976562, -38.913700103759766, -50.918617248535156, 5.977449893951416, 7.780324459075928, 0.18424159288406372, 2.8053479194641113, -1.0866966247558594, 1.2585041522979736, 
498, 1334619198, 91.0054931640625, -38.9039306640625, -50.90864944458008, 5.975938320159912, 7.794923782348633, 0.20178860425949097, 2.931241750717163, -1.3224501609802246, 1.250025749206543, 
499, 1334627531, 91.0157241821289, -38.90721893310547, -50.91215515136719, 5.997783184051514, 7.768738746643066, 0.21172328293323517, 2.996737480163574, -1.3874591588974, 1.2210818529129028, 
500, 1334635864, 90.9869155883789, -38.89781951904297, -50.89955139160156, 6.015588283538818, 7.7926788330078125, 0.22757165133953094, 3.105930805206299, -1.3273423910140991, 1.2484121322631836, 
501, 1334644197, 90.99859619140625, -38.90168762207031, -50.902793884277344, 5.996332168579102, 7.783548831939697, 0.2296699583530426, 3.19970440864563, -1.3666858673095703, 1.2970280647277832, 
502, 1334652530, 90.97216796875, -38.8917236328125, -50.89751434326172, 5.994472026824951, 7.795970916748047, 0.23467163741588593, 3.235858678817749, -1.4759175777435303, 1.2401514053344727, 
503, 1334660863, 90.9862289428711, -38.89445495605469, -50.90221405029297, 5.995656967163086, 7.784212589263916, 0.2803620994091034, 3.3874824047088623, -1.4999949932098389, 1.1635264158248901, 
504, 1334669196, 90.96136474609375, -38.88455581665039, -50.894622802734375, 5.993506908416748, 7.788039684295654, 0.26902103424072266, 3.3867392539978027, -1.4878153800964355, 1.2234638929367065, 
505, 1334677529, 90.9765396118164, -38.88727569580078, -50.89988327026367, 5.995221138000488, 7.792204856872559, 0.26110541820526123, 3.4906561374664307, -1.557422161102295, 1.1657549142837524, 
506, 1334685862, 90.95445251464844, -38.878395080566406, -50.890533447265625, 6.007570743560791, 7.7965593338012695, 0.27840152382850647, 3.5793588161468506, -1.6289756298065186, 1.3082468509674072, 
507, 1334694195, 90.97142791748047, -38.881534576416016, -50.89705276489258, 6.005490779876709, 7.791938781738281, 0.2813270092010498, 3.6157054901123047, -1.67833411693573, 1.2227721214294434, 
508, 1334702528, 90.95106506347656, -38.871856689453125, -50.892940521240234, 6.004023551940918, 7.787050247192383, 0.26367926597595215, 3.6307411193847656, -1.7917157411575317, 1.234734296798706, 
509, 1334710861, 90.96920013427734, -38.87589645385742, -50.899436950683594, 6.002735614776611, 7.789366722106934, 0.23527370393276215, 3.7681615352630615, -1.6733653545379639, 1.3329648971557617, 
510, 1334719194, 90.95242309570312, -38.865631103515625, -50.89737319946289, 5.996546268463135, 7.772397041320801, 0.24913622438907623, 3.8963353633880615, -1.9608337879180908, 1.1666259765625, 
511, 1334727527, 90.9745101928711, -38.86870193481445, -50.90692901611328, 6.009532928466797, 7.7825517654418945, 0.26633739471435547, 4.021973133087158, -1.9629086256027222, 1.2238738536834717, 
512, 1334735860, 90.95994567871094, -38.8597526550293, -50.90629196166992, 6.00715446472168, 7.784183502197266, 0.2524973154067993, 4.126401901245117, -1.964829683303833, 1.3411613702774048, 
513, 1334744193, 90.98334503173828, -38.863155364990234, -50.915828704833984, 6.0086236000061035, 7.772620677947998, 0.29675301909446716, 4.191974639892578, -1.9618326425552368, 1.2678534984588623, 
514, 1334752526, 90.9698257446289, -38.85371017456055, -50.91324996948242, 6.029669284820557, 7.789984703063965, 0.2778756022453308, 4.271199703216553, -1.9147539138793945, 1.2476437091827393, 
515, 1334760859, 90.99459838867188, -38.85740661621094, -50.92466735839844, 6.018667221069336, 7.771482944488525, 0.30936098098754883, 4.224991798400879, -2.1375207901000977, 1.310373067855835, 
516, 1334769192, 90.98265838623047, -38.848793029785156, -50.924041748046875, 6.019796848297119, 7.782468795776367, 0.3061051666736603, 4.289321422576904, -2.1002132892608643, 1.3525469303131104, 
517, 1334777525, 91.00723266601562, -38.85295867919922, -50.933956146240234, 6.015523433685303, 7.777376651763916, 0.332455039024353, 4.321300983428955, -1.9965656995773315, 1.3662121295928955, 
518, 1334785858, 90.99706268310547, -38.8437614440918, -50.940773010253906, 6.0203938484191895, 7.800180912017822, 0.3053096830844879, 4.449371814727783, -2.13103985786438, 1.3356285095214844, 
519, 1334794191, 91.02374267578125, -38.84785461425781, -50.95255661010742, 6.00368070602417, 7.7945146560668945, 0.2764197885990143, 4.451984405517578, -2.1682064533233643, 1.3623697757720947, 
520, 1334802524, 91.01319885253906, -38.84001922607422, -50.952293395996094, 5.987133026123047, 7.803340911865234, 0.3194502890110016, 4.369045257568359, -2.1579864025115967, 1.4269435405731201, 
521, 1334810857, 91.03988647460938, -38.843868255615234, -50.9639778137207, 5.96718692779541, 7.815605640411377, 0.26679477095603943, 4.46159029006958, -2.16456937789917, 1.3387279510498047, 
522, 1334819190, 91.03065490722656, -38.83503723144531, -50.96658706665039, 5.985286235809326, 7.813321113586426, 0.26070237159729004, 4.489253520965576, -2.1761727333068848, 1.3357312679290771, 
523, 1334827523, 91.0594253540039, -38.838409423828125, -50.98060989379883, 5.986578941345215, 7.817883014678955, 0.27141013741493225, 4.5440168380737305, -2.3813939094543457, 1.290035367012024, 
524, 1334835856, 91.05351257324219, -38.829280853271484, -50.985469818115234, 5.9819231033325195, 7.791616439819336, 0.2660176157951355, 4.634178638458252, -2.4682517051696777, 1.2907527685165405, 
525, 1334844189, 91.08380126953125, -38.83258819580078, -51.0008659362793, 5.982330322265625, 7.799428462982178, 0.25510650873184204, 4.633819580078125, -2.5115909576416016, 1.2869871854782104, 
526, 1334852522, 91.07990264892578, -38.82297134399414, -51.014915466308594, 5.971290588378906, 7.815181732177734, 0.28659844398498535, 4.668245315551758, -2.684666395187378, 1.32307767868042, 
527, 1334860855, 91.11214447021484, -38.826820373535156, -51.03215408325195, 5.955235481262207, 7.799741744995117, 0.2826343774795532, 4.744396209716797, -2.676469564437866, 1.359296202659607, 
528, 1334869188, 91.1089859008789, -38.817230224609375, -51.0418586730957, 5.955179214477539, 7.799933910369873, 0.30665403604507446, 4.691862106323242, -2.7532103061676025, 1.2782527208328247, 
529, 1334877521, 91.14221954345703, -38.82027053833008, -51.06096649169922, 5.973534107208252, 7.799051761627197, 0.33323538303375244, 4.728054046630859, -2.856614589691162, 1.2694413661956787, 
530, 1334885854, 91.1406478881836, -38.81076431274414, -51.07075500488281, 5.990589141845703, 7.805975437164307, 0.3244275152683258, 4.728721618652344, -2.9275407791137695, 1.2387813329696655, 
531, 1334894187, 91.17414855957031, -38.8140869140625, -51.09062576293945, 5.971580982208252, 7.791865348815918, 0.3340272605419159, 4.713198661804199, -2.9281551837921143, 1.3071969747543335, 
532, 1334902520, 91.17166137695312, -38.804359436035156, -51.10240936279297, 5.983333110809326, 7.804246425628662, 0.34878233075141907, 4.73750638961792, -2.760817289352417, 1.2446980476379395, 
533, 1334910853, 91.20556640625, -38.80695724487305, -51.121768951416016, 6.009514331817627, 7.803523063659668, 0.35215261578559875, 4.810455799102783, -2.8804361820220947, 1.224795937538147, 
534, 1334919186, 91.20281982421875, -38.79787063598633, -51.13078689575195, 5.997226238250732, 7.803866863250732, 0.32621023058891296, 4.638251304626465, -2.8349452018737793, 1.2808910608291626, 
535, 1334927519, 91.2351303100586, -38.80055618286133, -51.14970779418945, 6.003978729248047, 7.8105268478393555, 0.3296188712120056, 4.658128261566162, -2.841912031173706, 1.2397801876068115, 
536, 1334935852, 91.2326431274414, -38.79087829589844, -51.163719177246094, 6.002101898193359, 7.806936740875244, 0.36025887727737427, 4.749648094177246, -2.713815450668335, 1.2611682415008545, 
537, 1334944185, 91.26416778564453, -38.79376220703125, -51.18116760253906, 6.037199974060059, 7.803114891052246, 0.3359123766422272, 4.688045024871826, -2.6973965167999268, 1.2634989023208618, 
538, 1334952518, 91.26081848144531, -38.78445816040039, -51.19028091430664, 6.026510715484619, 7.8111701011657715, 0.3818466365337372, 4.7130961418151855, -2.617915630340576, 1.2939800024032593, 
539, 1334960851, 91.29112243652344, -38.78781509399414, -51.20705032348633, 6.0363359451293945, 7.784444332122803, 0.37133145332336426, 4.601315498352051, -2.6342062950134277, 1.3230777978897095, 
540, 1334969184, 91.28648376464844, -38.77878952026367, -51.21680450439453, 6.042443752288818, 7.774131774902344, 0.39168286323547363, 4.654183387756348, -2.4960434436798096, 1.3115769624710083, 
541, 1334977517, 91.3162841796875, -38.78273391723633, -51.2319221496582, 6.043393611907959, 7.781662940979004, 0.38817352056503296, 4.674956321716309, -2.4755260944366455, 1.391313910484314, 
542, 1334985850, 91.31070709228516, -38.77442932128906, -51.237152099609375, 6.045316696166992, 7.766905307769775, 0.3779090344905853, 4.617990970611572, -2.393458127975464, 1.3452082872390747, 
543, 1334994183, 91.33901977539062, -38.77750015258789, -51.2499885559082, 6.0555267333984375, 7.775784492492676, 0.40157726407051086, 4.674983024597168, -2.270432949066162, 1.2870897054672241, 
544, 1335002516, 91.33181762695312, -38.769805908203125, -51.25395202636719, 6.0408935546875, 7.782191276550293, 0.3865812122821808, 4.5038275718688965, -2.287235975265503, 1.4061702489852905, 
545, 1335010849, 91.3592300415039, -38.77351760864258, -51.2676887512207, 6.037801742553711, 7.790349960327148, 0.3760870695114136, 4.510897636413574, -2.3528339862823486, 1.3684405088424683, 
546, 1335019182, 91.35137176513672, -38.76517868041992, -51.27284240722656, 6.021676540374756, 7.782126426696777, 0.3625487685203552, 4.428700923919678, -2.2781171798706055, 1.3190560340881348, 
547, 1335027515, 91.37784576416016, -38.768863677978516, -51.286067962646484, 6.0076117515563965, 7.807038307189941, 0.35518527030944824, 4.442737579345703, -2.303398609161377, 1.3675950765609741, 
548, 1335035848, 91.36898040771484, -38.76093292236328, -51.28969955444336, 6.005748271942139, 7.804267406463623, 0.3807430565357208, 4.408133506774902, -2.137085199356079, 1.362600564956665, 
549, 1335044181, 91.39411163330078, -38.764549255371094, -51.3012580871582, 6.0199198722839355, 7.82906436920166, 0.3258318603038788, 4.415894031524658, -2.1478686332702637, 1.3586045503616333, 
550, 1335052514, 91.38523864746094, -38.75679397583008, -51.308204650878906, 6.010159969329834, 7.8127522468566895, 0.33830851316452026, 4.381442546844482, -2.158191204071045, 1.415724277496338, 
551, 1335060847, 91.40929412841797, -38.76042938232422, -51.3195915222168, 5.985554218292236, 7.8119378089904785, 0.3551667332649231, 4.3100056648254395, -2.12906813621521, 1.3625493049621582, 
552, 1335069180, 91.39990234375, -38.75239562988281, -51.32383346557617, 5.9868927001953125, 7.79739236831665, 0.33823633193969727, 4.292510509490967, -2.1815004348754883, 1.3591424226760864, 
553, 1335077513, 91.4242172241211, -38.75599670410156, -51.33633041381836, 5.983585357666016, 7.815150260925293, 0.33723294734954834, 4.265410900115967, -2.2357771396636963, 1.3646240234375, 
554, 1335085846, 91.41522216796875, -38.748374938964844, -51.343143463134766, 5.982107639312744, 7.812956809997559, 0.3403959572315216, 4.2141313552856445, -2.33193302154541, 1.3987934589385986, 
555, 1335094179, 91.43859100341797, -38.751808166503906, -51.355899810791016, 5.963816165924072, 7.805813789367676, 0.34798580408096313, 4.143435478210449, -2.2564990520477295, 1.347129464149475, 
556, 1335102512, 91.42825317382812, -38.744056701660156, -51.361148834228516, 5.970091342926025, 7.809925556182861, 0.3736908733844757, 4.185007572174072, -2.1581146717071533, 1.3891624212265015, 
557, 1335110845, 91.4515380859375, -38.74700927734375, -51.37340545654297, 5.979183197021484, 7.812720775604248, 0.36175021529197693, 4.178565502166748, -2.21171236038208, 1.29132878780365, 
558, 1335119178, 91.4404296875, -38.73871612548828, -51.38045883178711, 5.971063613891602, 7.813973426818848, 0.34415313601493835, 4.073470592498779, -2.1688084602355957, 1.3322092294692993, 
559, 1335127511, 91.46206665039062, -38.740997314453125, -51.392723083496094, 5.973832607269287, 7.816226959228516, 0.3763009011745453, 3.992260456085205, -2.2126986980438232, 1.213218331336975, 
560, 1335135844, 91.45021057128906, -38.731266021728516, -51.401329040527344, 5.9451093673706055, 7.821360111236572, 0.35058581829071045, 3.963111400604248, -2.1843435764312744, 1.188167691230774, 
561, 1335144177, 91.47045135498047, -38.734073638916016, -51.41197967529297, 5.971587181091309, 7.836196422576904, 0.33268460631370544, 3.9551453590393066, -2.058321475982666, 1.2768696546554565, 
562, 1335152510, 91.45709991455078, -38.72537612915039, -51.41557312011719, 5.962298393249512, 7.83831262588501, 0.35116297006607056, 3.840547561645508, -2.1164658069610596, 1.2518445253372192, 
563, 1335160843, 91.47575378417969, -38.72722244262695, -51.42613983154297, 5.958366394042969, 7.8270487785339355, 0.3627876937389374, 3.778996467590332, -2.057220220565796, 1.1633986234664917, 
564, 1335169176, 91.46033477783203, -38.717185974121094, -51.43440628051758, 5.987824440002441, 7.8100762367248535, 0.36410629749298096, 3.6313302516937256, -2.056554079055786, 1.1463650465011597, 
565, 1335177509, 91.47706604003906, -38.71971893310547, -51.44419479370117, 5.997012138366699, 7.809123516082764, 0.336758017539978, 3.61685848236084, -1.97320556640625, 1.2483354806900024, 
566, 1335185842, 91.46031951904297, -38.7100715637207, -51.446285247802734, 6.016941070556641, 7.804885387420654, 0.38829219341278076, 3.5866334438323975, -1.9136779308319092, 1.1189066171646118, 
567, 1335194175, 91.47554016113281, -38.71196746826172, -51.45436096191406, 6.016990661621094, 7.7994794845581055, 0.3705199360847473, 3.5706241130828857, -1.8193918466567993, 1.1700581312179565, 
568, 1335202508, 91.45707702636719, -38.70282745361328, -51.45706558227539, 6.03265905380249, 7.78931188583374, 0.37121298909187317, 3.435227394104004, -1.8251550197601318, 1.2177774906158447, 
569, 1335210841, 91.47030639648438, -38.70437240600586, -51.464080810546875, 6.038978099822998, 7.7696380615234375, 0.36004626750946045, 3.4191157817840576, -1.7170372009277344, 1.1300742626190186, 
570, 1335219174, 91.45062255859375, -38.69498062133789, -51.462711334228516, 6.029923439025879, 7.8048248291015625, 0.3587794005870819, 3.428285837173462, -1.6609934568405151, 1.1183174848556519, 
571, 1335227507, 91.461669921875, -38.69830322265625, -51.46792984008789, 6.036458969116211, 7.8094658851623535, 0.3629985451698303, 3.3029556274414062, -1.5482908487319946, 1.3372936248779297, 
572, 1335235840, 91.43999481201172, -38.690189361572266, -51.4658203125, 6.034308433532715, 7.800121307373047, 0.34503039717674255, 3.3147122859954834, -1.492323637008667, 1.2692108154296875, 
573, 1335244173, 91.45024108886719, -38.69260025024414, -51.469940185546875, 6.054590702056885, 7.803033828735352, 0.3636317253112793, 3.295783281326294, -1.4446555376052856, 1.229841709136963, 
574, 1335252506, 91.42822265625, -38.68508529663086, -51.46303176879883, 6.037492752075195, 7.797275066375732, 0.338922381401062, 3.2799794673919678, -1.4801570177078247, 1.2875763177871704, 
575, 1335260839, 91.4383316040039, -38.68806076049805, -51.467159271240234, 6.048247337341309, 7.790452003479004, 0.36833545565605164, 3.285384178161621, -1.4510592222213745, 1.2989234924316406, 
576, 1335269172, 91.41474151611328, -38.67938995361328, -51.467342376708984, 6.041360855102539, 7.8006815910339355, 0.3360479176044464, 3.1674046516418457, -1.3570804595947266, 1.2434685230255127, 
577, 1335277505, 91.42304992675781, -38.68272018432617, -51.46983337402344, 6.017402172088623, 7.805591106414795, 0.35325345396995544, 3.203341484069824, -1.2896894216537476, 1.341647982597351, 
578, 1335285838, 91.39993286132812, -38.67445373535156, -51.468666076660156, 6.000185489654541, 7.791191101074219, 0.3401995301246643, 3.162179470062256, -1.435204029083252, 1.2529202699661255, 
579, 1335294171, 91.40668487548828, -38.67824935913086, -51.469383239746094, 6.019150257110596, 7.802752494812012, 0.30053991079330444, 3.1568775177001953, -1.1207637786865234, 1.3934144973754883, 
580, 1335302504, 91.383056640625, -38.67049789428711, -51.46818161010742, 6.004903316497803, 7.807557582855225, 0.2980858087539673, 3.2402257919311523, -1.2395880222320557, 1.3211052417755127, 
581, 1335310837, 91.39044952392578, -38.673484802246094, -51.47012710571289, 5.987104415893555, 7.801657199859619, 0.28879934549331665, 3.153625011444092, -1.2356948852539062, 1.3012545108795166, 
582, 1335319170, 91.36571502685547, -38.665679931640625, -51.46653747558594, 5.994508266448975, 7.7896904945373535, 0.2804161608219147, 3.1043429374694824, -1.231442928314209, 1.3012800216674805, 
583, 1335327503, 91.37271118164062, -38.66893768310547, -51.468841552734375, 5.987400054931641, 7.818378925323486, 0.2621918022632599, 3.0842103958129883, -1.269095778465271, 1.3381133079528809, 
584, 1335335836, 91.34785461425781, -38.66048812866211, -51.47477340698242, 5.9924445152282715, 7.810755729675293, 0.23983608186244965, 3.031240224838257, -1.2737832069396973, 1.3029448986053467, 
585, 1335344169, 91.35416412353516, -38.66374206542969, -51.47676467895508, 5.953894138336182, 7.814269065856934, 0.26095911860466003, 3.0402562618255615, -1.230136513710022, 1.3404442071914673, 
586, 1335352502, 91.3294906616211, -38.655967712402344, -51.477840423583984, 5.9606547355651855, 7.827725410461426, 0.2789459526538849, 3.0361578464508057, -1.2847973108291626, 1.3107317686080933, 
587, 1335360835, 91.33604431152344, -38.65888977050781, -51.48129653930664, 5.954394340515137, 7.832054138183594, 0.28520771861076355, 2.963515520095825, -1.3724490404129028, 1.306172251701355, 
588, 1335369168, 91.31036376953125, -38.65087890625, -51.477806091308594, 5.967129707336426, 7.842746257781982, 0.2634655833244324, 2.9582643508911133, -1.2188661098480225, 1.2600153684616089, 
589, 1335377501, 91.31634521484375, -38.6532096862793, -51.48094177246094, 5.962734222412109, 7.811103820800781, 0.27823612093925476, 2.927361488342285, -1.3443119525909424, 1.2350289821624756, 
590, 1335385834, 91.29251098632812, -38.64546585083008, -51.473636627197266, 5.963710308074951, 7.822450637817383, 0.22360825538635254, 2.959545850753784, -1.4891221523284912, 1.2013076543807983, 
591, 1335394167, 91.2987060546875, -38.646907806396484, -51.477577209472656, 5.978969573974609, 7.809066295623779, 0.2506933808326721, 2.8953051567077637, -1.4293897151947021, 1.1325335502624512, 
592, 1335402500, 91.27420806884766, -38.638179779052734, -51.47549057006836, 5.968019008636475, 7.797998905181885, 0.24608683586120605, 2.921534299850464, -1.402008056640625, 1.1661649942398071, 
593, 1335410833, 91.28072357177734, -38.63965606689453, -51.47972106933594, 6.006538391113281, 7.791840076446533, 0.2276323288679123, 2.9228405952453613, -1.4515204429626465, 1.140678882598877, 
594, 1335419166, 91.25712585449219, -38.63078689575195, -51.47747039794922, 5.993031978607178, 7.788228511810303, 0.25175318121910095, 3.00437068939209, -1.4213467836380005, 1.1119396686553955, 
595, 1335427499, 91.26390838623047, -38.63172149658203, -51.48134231567383, 6.009346008300781, 7.802127361297607, 0.2514612376689911, 2.988233804702759, -1.4166338443756104, 1.0757466554641724, 
596, 1335435832, 91.2399673461914, -38.62380599975586, -51.48222351074219, 6.014920234680176, 7.807888031005859, 0.26754826307296753, 2.920637607574463, -1.445039987564087, 1.2626025676727295, 
597, 1335444165, 91.24591827392578, -38.625728607177734, -51.4859504699707, 6.009988784790039, 7.779502868652344, 0.2948037385940552, 2.9101362228393555, -1.4013934135437012, 1.1949809789657593, 
598, 1335452498, 91.2210464477539, -38.61701583862305, -51.48712158203125, 6.037148952484131, 7.7777628898620605, 0.28968337178230286, 2.9162065982818604, -1.2824662923812866, 1.1819945573806763, 
599, 1335460831, 91.2268295288086, -38.61955642700195, -51.489559173583984, 6.0560150146484375, 7.783285140991211, 0.3103536367416382, 2.9968912601470947, -1.2729380130767822, 1.2699795961380005, 
600, 1335469164, 91.2017593383789, -38.61238479614258, -51.48196792602539, 6.050868511199951, 7.801457405090332, 0.3340626358985901, 2.9504013061523438, -1.211668610572815, 1.262986660003662, 
601, 1335477497, 91.2066421508789, -38.61422348022461, -51.4826545715332, 6.0455322265625, 7.7923383712768555, 0.302044153213501, 3.0215578079223633, -1.1178438663482666, 1.1821995973587036, 
602, 1335485830, 91.18087768554688, -38.60658645629883, -51.47618103027344, 6.044548988342285, 7.798328876495361, 0.27913445234298706, 2.9282963275909424, -1.1128489971160889, 1.2354772090911865, 
603, 1335494163, 91.18537902832031, -38.60862731933594, -51.4758186340332, 6.042496204376221, 7.7870683670043945, 0.2701890468597412, 3.0633087158203125, -1.0175381898880005, 1.2095041275024414, 
604, 1335502496, 91.16067504882812, -38.60028839111328, -51.47419357299805, 6.037592887878418, 7.800364017486572, 0.2819499373435974, 3.045020341873169, -1.1046780347824097, 1.1664210557937622, 
605, 1335510829, 91.1642074584961, -38.60304641723633, -51.47393035888672, 6.031901836395264, 7.785587310791016, 0.3025086522102356, 2.9514262676239014, -1.0204840898513794, 1.2977709770202637, 
606, 1335519162, 91.13896179199219, -38.5953483581543, -51.4722785949707, 6.020162105560303, 7.807938575744629, 0.25794389843940735, 2.9844682216644287, -1.0774500370025635, 1.2536888122558594, 
607, 1335527495, 91.14313507080078, -38.59817123413086, -51.47181701660156, 6.034717082977295, 7.817497730255127, 0.2629735469818115, 3.050757884979248, -1.0018879175186157, 1.3059673309326172, 
608, 1335535828, 91.11779022216797, -38.59164047241211, -51.46546936035156, 6.021659851074219, 7.804467678070068, 0.28020817041397095, 3.059159517288208, -0.9488409161567688, 1.3504338264465332, 
609, 1335544161, 91.1214828491211, -38.59458923339844, -51.46513366699219, 6.002429962158203, 7.794342517852783, 0.2841002345085144, 2.9865684509277344, -1.0141829252243042, 1.3254344463348389, 
610, 1335552494, 91.0965805053711, -38.58674240112305, -51.46276092529297, 6.003643035888672, 7.808271884918213, 0.3007768988609314, 3.0033717155456543, -1.0701498985290527, 1.2157284021377563, 
