sep=,
PacketCounter,SampleTimeFine,Euler_X,Euler_Y,Euler_Z,Acc_X,Acc_Y,Acc_Z,Gyr_X,Gyr_Y,Gyr_Z,
0, 2325718983, -93.15890502929688, -65.97798156738281, -167.53944396972656, 0, 0, 0, 0, 0, 0, 
1, 2325727316, -93.37004089355469, -65.96432495117188, -167.3181610107422, 9.014068603515625, -3.9896113872528076, -0.1784701645374298, -1.0836101770401, -10.888175964355469, 1.020304560661316, 
2, 2325735649, -93.47560119628906, -65.95708465576172, -167.19345092773438, 9.024482727050781, -4.005524635314941, -0.16280922293663025, -1.2499492168426514, -11.296339988708496, 0.8914651870727539, 
3, 2325743982, -93.70238494873047, -65.94371795654297, -166.95799255371094, 9.018085479736328, -4.0102925300598145, -0.1876039057970047, -1.4124202728271484, -11.59300422668457, 0.8807584643363953, 
4, 2325752315, -93.75424194335938, -65.94300842285156, -166.88189697265625, 9.02288818359375, -4.000467300415039, -0.19129301607608795, -1.4649038314819336, -11.940614700317383, 0.9137495756149292, 
5, 2325760648, -93.99591064453125, -65.92879486083984, -166.6332244873047, 9.041891098022461, -4.005253314971924, -0.2265549600124359, -1.7506306171417236, -12.255260467529297, 0.8762502670288086, 
6, 2325768981, -94.09294891357422, -65.9325180053711, -166.5258331298828, 9.056368827819824, -4.017400741577148, -0.1985180526971817, -1.9118467569351196, -12.689654350280762, 0.8428237438201904, 
7, 2325777314, -94.34969329833984, -65.9170150756836, -166.262939453125, 9.060894012451172, -4.0001935958862305, -0.22048243880271912, -2.0081818103790283, -12.970075607299805, 0.9106757640838623, 
8, 2325785647, -94.46485900878906, -65.92289733886719, -166.12368774414062, 9.053080558776855, -3.9939329624176025, -0.2185405194759369, -2.173624277114868, -13.268302917480469, 0.7825021147727966, 
9, 2325793980, -94.73624420166016, -65.90691375732422, -165.8474578857422, 9.08181095123291, -4.004178524017334, -0.22179892659187317, -2.3095080852508545, -13.637276649475098, 0.8294787406921387, 
10, 2325802313, -94.86914825439453, -65.91344451904297, -165.72325134277344, 9.070591926574707, -4.018133163452148, -0.20995007455348969, -2.320061206817627, -13.824416160583496, 0.922842800617218, 
11, 2325810646, -95.15056610107422, -65.89784240722656, -165.43792724609375, 9.054917335510254, -3.995232582092285, -0.23651045560836792, -2.5141398906707764, -14.087984085083008, 0.6429557800292969, 
12, 2325818979, -95.29476928710938, -65.90153503417969, -165.28570556640625, 9.06164836883545, -4.0200114250183105, -0.24250853061676025, -2.508248805999756, -14.359033584594727, 0.8523009419441223, 
13, 2325827312, -95.583251953125, -65.88370513916016, -164.9944305419922, 9.08154010772705, -4.0082902908325195, -0.23966199159622192, -2.720898151397705, -14.414669036865234, 0.7816057205200195, 
14, 2325835645, -95.74039459228516, -65.88459777832031, -164.8256072998047, 9.083104133605957, -4.011144638061523, -0.23869964480400085, -2.8069369792938232, -14.734464645385742, 0.7577846050262451, 
15, 2325843978, -96.0374984741211, -65.86505126953125, -164.5251007080078, 9.093995094299316, -4.006743907928467, -0.23466677963733673, -2.743720531463623, -14.903850555419922, 0.8235617876052856, 
16, 2325852311, -96.1954345703125, -65.86534881591797, -164.3736114501953, 9.100652694702148, -3.993058681488037, -0.2488282024860382, -2.7458977699279785, -14.962890625, 0.7103469371795654, 
17, 2325860644, -96.49864196777344, -65.8455810546875, -164.06790161132812, 9.088379859924316, -4.002972602844238, -0.2772742807865143, -2.90391206741333, -15.177767753601074, 0.6964383721351624, 
18, 2325868977, -96.66566467285156, -65.84534454345703, -163.90281677246094, 9.101424217224121, -4.005838871002197, -0.2687127888202667, -2.9755804538726807, -15.186299324035645, 0.7224881052970886, 
19, 2325877310, -96.97087097167969, -65.82454681396484, -163.5960693359375, 9.086219787597656, -4.019759654998779, -0.23680409789085388, -3.0419983863830566, -15.260297775268555, 0.6925450563430786, 
20, 2325885643, -97.14128875732422, -65.82233428955078, -163.42401123046875, 9.105761528015137, -4.00602912902832, -0.25234633684158325, -3.052243947982788, -15.501686096191406, 0.6920070648193359, 
21, 2325893976, -97.45048522949219, -65.79988861083984, -163.11334228515625, 9.087238311767578, -4.023665904998779, -0.21892096102237701, -3.1020638942718506, -15.495641708374023, 0.735858678817749, 
22, 2325902309, -97.61559295654297, -65.7962875366211, -162.94400024414062, 9.103339195251465, -4.039029121398926, -0.2662169635295868, -3.054600477218628, -15.587801933288574, 0.6753578782081604, 
23, 2325910642, -97.9268569946289, -65.77277374267578, -162.63079833984375, 9.101067543029785, -4.038345813751221, -0.24267123639583588, -3.0751430988311768, -15.658906936645508, 0.7117300629615784, 
24, 2325918975, -98.09000396728516, -65.7660140991211, -162.44259643554688, 9.088730812072754, -4.024717330932617, -0.23876605927944183, -3.053473472595215, -15.672636032104492, 0.729147732257843, 
25, 2325927308, -98.40473937988281, -65.7412338256836, -162.12652587890625, 9.087894439697266, -4.040233612060547, -0.25787973403930664, -3.1871542930603027, -15.84504508972168, 0.7125241160392761, 
26, 2325935641, -98.56527709960938, -65.73226165771484, -161.96856689453125, 9.07763957977295, -4.035836696624756, -0.25084853172302246, -3.1936087608337402, -15.693331718444824, 0.7659041881561279, 
27, 2325943974, -98.87693786621094, -65.706298828125, -161.65599060058594, 9.09483528137207, -4.042559623718262, -0.24524806439876556, -3.212486505508423, -15.724888801574707, 0.7433892488479614, 
28, 2325952307, -99.03311157226562, -65.69573211669922, -161.48324584960938, 9.098591804504395, -4.028955936431885, -0.2513594627380371, -3.151806354522705, -15.674761772155762, 0.7433892488479614, 
29, 2325960640, -99.34333038330078, -65.6690902709961, -161.17172241210938, 9.093414306640625, -4.0300068855285645, -0.2537173628807068, -3.169762134552002, -15.711213111877441, 0.7012025713920593, 
30, 2325968973, -99.49897003173828, -65.65791320800781, -161.0065155029297, 9.065781593322754, -4.023494243621826, -0.2633708119392395, -3.193122386932373, -15.779010772705078, 0.696745753288269, 
31, 2325977306, -99.80902862548828, -65.62995147705078, -160.6949462890625, 9.096064567565918, -4.0214056968688965, -0.23316682875156403, -3.1479132175445557, -15.77007007598877, 0.7247421145439148, 
32, 2325985639, -99.95858001708984, -65.61713409423828, -160.53126525878906, 9.082242965698242, -4.037234306335449, -0.22926050424575806, -3.2108728885650635, -15.618769645690918, 0.837905764579773, 
33, 2325993972, -100.26392364501953, -65.58819580078125, -160.22561645507812, 9.082389831542969, -4.027379989624023, -0.23710276186466217, -3.241610527038574, -15.53030014038086, 0.7608839273452759, 
34, 2326002305, -100.40612030029297, -65.57540893554688, -160.0732879638672, 9.107945442199707, -4.022741317749023, -0.2723582684993744, -3.159132242202759, -15.427891731262207, 0.7699000239372253, 
35, 2326010638, -100.70561981201172, -65.54579162597656, -159.77276611328125, 9.116034507751465, -4.012690544128418, -0.2952984571456909, -3.116485118865967, -15.326924324035645, 0.7656225562095642, 
36, 2326018971, -100.8436050415039, -65.53338623046875, -159.60621643066406, 9.112337112426758, -4.034473896026611, -0.25851696729660034, -2.996584177017212, -15.245646476745605, 0.7269193530082703, 
37, 2326027304, -101.13719940185547, -65.50277709960938, -159.31076049804688, 9.104551315307617, -4.020779132843018, -0.27400338649749756, -2.9684853553771973, -15.132123947143555, 0.8069894909858704, 
38, 2326035637, -101.26349639892578, -65.49024200439453, -159.17135620117188, 9.12425708770752, -4.031099796295166, -0.28831082582473755, -2.889516830444336, -14.722734451293945, 0.7918514609336853, 
39, 2326043970, -101.5463638305664, -65.46037292480469, -158.88507080078125, 9.110822677612305, -4.010293960571289, -0.28422024846076965, -2.6952333450317383, -14.696940422058105, 0.6965921521186829, 
40, 2326052303, -101.67066955566406, -65.4485092163086, -158.74241638183594, 9.114314079284668, -4.035393714904785, -0.27459225058555603, -2.811624050140381, -14.623555183410645, 0.6975398659706116, 
41, 2326060636, -101.94515228271484, -65.41827392578125, -158.46510314941406, 9.1110200881958, -3.9958300590515137, -0.30206406116485596, -2.675304412841797, -14.298226356506348, 0.720131516456604, 
42, 2326068969, -102.05851745605469, -65.40652465820312, -158.32090759277344, 9.105353355407715, -4.009332180023193, -0.3313682973384857, -2.5874733924865723, -14.13544750213623, 0.7665956020355225, 
43, 2326077302, -102.32243347167969, -65.37556457519531, -158.05322265625, 9.10637378692627, -4.02042293548584, -0.29089704155921936, -2.4746944904327393, -13.872596740722656, 0.8126502633094788, 
44, 2326085635, -102.42271423339844, -65.3642578125, -157.9405975341797, 9.10659408569336, -4.01763391494751, -0.31600016355514526, -2.3231091499328613, -13.479723930358887, 0.8052732944488525, 
45, 2326093968, -102.66963958740234, -65.33391571044922, -157.6876678466797, 9.111300468444824, -4.0009942054748535, -0.29674941301345825, -2.0531859397888184, -13.164308547973633, 0.8044023513793945, 
46, 2326102301, -102.75655364990234, -65.32362365722656, -157.5760955810547, 9.109601974487305, -3.9984896183013916, -0.30381831526756287, -1.9802626371383667, -12.858196258544922, 0.8033779263496399, 
47, 2326110634, -102.98775482177734, -65.2936782836914, -157.33750915527344, 9.087687492370605, -4.023375511169434, -0.30883488059043884, -1.7329570055007935, -12.477388381958008, 0.8366507887840271, 
48, 2326118967, -103.06243133544922, -65.28376770019531, -157.2412109375, 9.101364135742188, -4.028182506561279, -0.3259490132331848, -1.6692543029785156, -12.2977294921875, 0.8529925346374512, 
49, 2326127300, -103.28157806396484, -65.25418853759766, -157.013427734375, 9.100383758544922, -4.019498348236084, -0.2747706174850464, -1.4794784784317017, -11.96397590637207, 0.8541195392608643, 
50, 2326135633, -103.33900451660156, -65.2448959350586, -156.9326629638672, 9.124476432800293, -4.018856525421143, -0.29753825068473816, -1.276178002357483, -11.502713203430176, 0.9146459102630615, 
51, 2326143966, -103.5394058227539, -65.21603393554688, -156.72193908691406, 9.090982437133789, -4.034237384796143, -0.32262298464775085, -1.1059203147888184, -11.1326904296875, 0.9152607321739197, 
52, 2326152299, -103.5821533203125, -65.20748901367188, -156.65499877929688, 9.083160400390625, -4.024789810180664, -0.31662216782569885, -1.0086119174957275, -10.772733688354492, 0.9624935388565063, 
53, 2326160632, -103.76761627197266, -65.17904663085938, -156.4589080810547, 9.10043716430664, -4.032576084136963, -0.2837757170200348, -0.9076404571533203, -10.42402172088623, 0.9863658547401428, 
54, 2326168965, -103.79595184326172, -65.171875, -156.40499877929688, 9.102744102478027, -4.0389580726623535, -0.31649431586265564, -0.6914819478988647, -10.068316459655762, 0.9280423521995544, 
55, 2326177298, -103.96449279785156, -65.14485168457031, -156.2234649658203, 9.081782341003418, -4.0351881980896, -0.29624512791633606, -0.47012361884117126, -9.690377235412598, 0.9564995169639587, 
56, 2326185631, -103.97779846191406, -65.13851928710938, -156.18359375, 9.074152946472168, -4.021538257598877, -0.3191443383693695, -0.3992747664451599, -9.31343936920166, 0.9675394296646118, 
57, 2326193964, -104.12783813476562, -65.11317443847656, -156.01937866210938, 9.077818870544434, -4.047377586364746, -0.2915774881839752, -0.14123688638210297, -8.810246467590332, 0.9405418038368225, 
58, 2326202297, -104.12327575683594, -65.10794830322266, -155.99607849121094, 9.068260192871094, -4.0431928634643555, -0.2982337176799774, -0.040368031710386276, -8.420756340026855, 1.0105199813842773, 
59, 2326210630, -104.25589752197266, -65.08328247070312, -155.8470458984375, 9.0870361328125, -4.046757221221924, -0.2986146807670593, 0.28891584277153015, -8.059469223022461, 1.028398871421814, 
60, 2326218963, -104.23783111572266, -65.07874298095703, -155.83583068847656, 9.043985366821289, -4.031016826629639, -0.3216760456562042, 0.2798227369785309, -7.761036396026611, 1.0499403476715088, 
61, 2326227296, -104.35494232177734, -65.05496215820312, -155.70225524902344, 9.069541931152344, -4.015321254730225, -0.2827768623828888, 0.4654747247695923, -7.291040897369385, 1.1004517078399658, 
62, 2326235629, -104.31719207763672, -65.05181884765625, -155.70814514160156, 9.073579788208008, -4.02070951461792, -0.28141212463378906, 0.8021225333213806, -6.817868709564209, 1.0953541994094849, 
63, 2326243962, -104.41423034667969, -65.030517578125, -155.5929412841797, 9.07259464263916, -4.007111549377441, -0.30545327067375183, 0.8707943558692932, -6.325000286102295, 1.0333679914474487, 
64, 2326252295, -104.36216735839844, -65.02885437011719, -155.61294555664062, 9.052114486694336, -4.012216567993164, -0.3072240352630615, 1.0128252506256104, -6.024135112762451, 1.1027567386627197, 
65, 2326260628, -104.43890380859375, -65.00865936279297, -155.51632690429688, 9.080676078796387, -4.017715930938721, -0.31436485052108765, 1.283644676208496, -5.390003681182861, 1.1341087818145752, 
66, 2326268961, -104.36898803710938, -65.0090103149414, -155.55218505859375, 9.072027206420898, -4.010123252868652, -0.3097647428512573, 1.464967966079712, -5.106146812438965, 1.0741201639175415, 
67, 2326277294, -104.42801666259766, -64.99043273925781, -155.47216796875, 9.065044403076172, -4.017235279083252, -0.3052222728729248, 1.5959844589233398, -4.530978679656982, 1.1547538042068481, 
68, 2326285627, -104.3402328491211, -64.99210357666016, -155.5247039794922, 9.067971229553223, -3.995619058609009, -0.28255993127822876, 1.8345301151275635, -4.162313461303711, 1.1343392133712769, 
69, 2326293960, -104.37964630126953, -64.97590637207031, -155.46250915527344, 9.072240829467773, -4.002353668212891, -0.3037715256214142, 2.0032765865325928, -3.594548463821411, 1.1120036840438843, 
70, 2326302293, -104.2723388671875, -64.97976684570312, -155.53297424316406, 9.074861526489258, -3.995319128036499, -0.281594842672348, 2.259136915206909, -3.135899543762207, 1.1222237348556519, 
71, 2326310626, -104.29297637939453, -64.96521759033203, -155.48806762695312, 9.087652206420898, -4.002291202545166, -0.30646347999572754, 2.380368947982788, -2.6963586807250977, 1.1344926357269287, 
72, 2326318959, -104.16771697998047, -64.96987915039062, -155.57608032226562, 9.067538261413574, -3.9976792335510254, -0.3292757570743561, 2.539536237716675, -2.1643519401550293, 1.264920711517334, 
73, 2326327292, -104.16584014892578, -64.95787811279297, -155.5514373779297, 9.10739803314209, -4.011092185974121, -0.31558364629745483, 2.8776183128356934, -1.627426028251648, 1.0957385301589966, 
74, 2326335625, -104.0224838256836, -64.96484375, -155.65444946289062, 9.09763240814209, -4.010782241821289, -0.31451305747032166, 3.1226186752319336, -1.2467217445373535, 1.192637324333191, 
75, 2326343958, -104.00041961669922, -64.95443725585938, -155.64634704589844, 9.089027404785156, -4.002657413482666, -0.34605371952056885, 3.49648380279541, -0.7683501839637756, 1.1189450025558472, 
76, 2326352291, -103.8365478515625, -64.9635238647461, -155.7683868408203, 9.08386516571045, -4.004961013793945, -0.32155442237854004, 3.5789361000061035, -0.13012032210826874, 1.170967698097229, 
77, 2326360624, -103.78890228271484, -64.95484161376953, -155.7854766845703, 9.071996688842773, -4.013383865356445, -0.3474401533603668, 3.827573537826538, 0.5219796299934387, 1.2249879837036133, 
78, 2326368957, -103.6053466796875, -64.96452331542969, -155.92520141601562, 9.090435028076172, -4.037411212921143, -0.3381081223487854, 4.0681681632995605, 0.8847029209136963, 1.3035469055175781, 
79, 2326377290, -103.54070281982422, -64.95743560791016, -155.95724487304688, 9.080155372619629, -4.008306980133057, -0.3247554302215576, 4.2387590408325195, 1.308182954788208, 1.2146142721176147, 
80, 2326385623, -103.34061431884766, -64.96908569335938, -156.1121368408203, 9.087238311767578, -4.015273094177246, -0.34562748670578003, 4.457222938537598, 1.8144484758377075, 1.2198652029037476, 
81, 2326393956, -103.2550277709961, -64.96296691894531, -156.16366577148438, 9.079692840576172, -4.00620698928833, -0.3371615409851074, 4.63145112991333, 2.2956631183624268, 1.3263435363769531, 
82, 2326402289, -103.03900909423828, -64.97502136230469, -156.33291625976562, 9.05600357055664, -4.020535469055176, -0.3502202332019806, 4.865565299987793, 2.6721155643463135, 1.3048532009124756, 
83, 2326410622, -102.93356323242188, -64.97058868408203, -156.4022979736328, 9.077252388000488, -4.041540622711182, -0.3022004961967468, 5.075064182281494, 3.2292256355285645, 1.3155088424682617, 
84, 2326418955, -102.69850158691406, -64.98389434814453, -156.58937072753906, 9.067373275756836, -4.033806800842285, -0.3375486135482788, 5.2537994384765625, 3.7174832820892334, 1.3145610094070435, 
85, 2326427288, -102.57417297363281, -64.98040008544922, -156.67481994628906, 9.084675788879395, -4.016108989715576, -0.30745911598205566, 5.591139316558838, 4.046780109405518, 1.3663272857666016, 
86, 2326435621, -102.32113647460938, -64.99373626708984, -156.87742614746094, 9.083279609680176, -4.047539710998535, -0.28764933347702026, 5.785192489624023, 4.621691703796387, 1.413841724395752, 
87, 2326443954, -102.17888641357422, -64.99137878417969, -156.97979736328125, 9.08519172668457, -4.031118392944336, -0.3167232871055603, 5.8843207359313965, 4.916537761688232, 1.3921979665756226, 
88, 2326452287, -101.91127014160156, -65.00423431396484, -157.1959991455078, 9.079326629638672, -4.040629863739014, -0.2893435060977936, 6.115180492401123, 5.411942481994629, 1.531897783279419, 
89, 2326460620, -101.75162506103516, -65.00263977050781, -157.31405639648438, 9.082086563110352, -4.035399436950684, -0.3100844919681549, 6.2715044021606445, 5.716444492340088, 1.4276223182678223, 
90, 2326468953, -101.47049713134766, -65.01631927490234, -157.54330444335938, 9.06178092956543, -4.019003868103027, -0.29598650336265564, 6.362768173217773, 6.211337089538574, 1.4905821084976196, 
91, 2326477286, -101.29269409179688, -65.015380859375, -157.67861938476562, 9.10120964050293, -4.016363143920898, -0.2885366976261139, 6.563482761383057, 6.592272758483887, 1.4787997007369995, 
92, 2326485619, -100.99803924560547, -65.02909851074219, -157.9193878173828, 9.08365535736084, -4.0274248123168945, -0.3069581985473633, 6.789501190185547, 6.915370464324951, 1.5095878839492798, 
93, 2326493952, -100.80473327636719, -65.02861022949219, -158.06887817382812, 9.083063125610352, -4.031525135040283, -0.2936323881149292, 6.885324478149414, 7.3117241859436035, 1.4976773262023926, 
94, 2326502285, -100.49785614013672, -65.04210662841797, -158.3214111328125, 9.1013765335083, -4.032326698303223, -0.3057252764701843, 7.027329921722412, 7.636974811553955, 1.5500327348709106, 
95, 2326510618, -100.28836822509766, -65.04228973388672, -158.48484802246094, 9.083832740783691, -4.006869792938232, -0.3132827877998352, 7.305577278137207, 8.023621559143066, 1.4855873584747314, 
96, 2326518951, -99.96605682373047, -65.05583953857422, -158.75173950195312, 9.07325553894043, -3.999927520751953, -0.30597004294395447, 7.379602909088135, 8.502095222473145, 1.5615848302841187, 
97, 2326527284, -99.73941040039062, -65.05609893798828, -158.93142700195312, 9.102787971496582, -4.001002311706543, -0.3010174334049225, 7.591149806976318, 8.838103294372559, 1.5388906002044678, 
98, 2326535617, -99.40546417236328, -65.0689468383789, -159.20831298828125, 9.102395057678223, -4.014440059661865, -0.29769471287727356, 7.747628688812256, 9.13686752319336, 1.6163736581802368, 
99, 2326543950, -99.1675033569336, -65.06871795654297, -159.39952087402344, 9.089646339416504, -4.003936767578125, -0.29234445095062256, 7.688278675079346, 9.407660484313965, 1.6014659404754639, 
100, 2326552283, -98.82609558105469, -65.08139038085938, -159.68321228027344, 9.100330352783203, -3.992058277130127, -0.3080486059188843, 7.963504791259766, 9.624613761901855, 1.5587928295135498, 
101, 2326560616, -98.57403564453125, -65.08208465576172, -159.8871307373047, 9.104451179504395, -4.022014141082764, -0.29432985186576843, 7.99949312210083, 10.065153121948242, 1.489916205406189, 
102, 2326568949, -98.22057342529297, -65.0944595336914, -160.18186950683594, 9.100845336914062, -4.0060906410217285, -0.2907841205596924, 8.25804328918457, 10.331669807434082, 1.5483678579330444, 
103, 2326577282, -97.95458221435547, -65.09429931640625, -160.39752197265625, 9.108418464660645, -4.01057767868042, -0.2820127010345459, 8.380273818969727, 10.64193344116211, 1.56998610496521, 
104, 2326585615, -97.59294128417969, -65.1058349609375, -160.6675262451172, 9.112317085266113, -4.018825054168701, -0.2890889048576355, 8.43076229095459, 10.87213134765625, 1.5531069040298462, 
105, 2326593948, -97.31504821777344, -65.1045150756836, -160.8946533203125, 9.115172386169434, -3.9960250854492188, -0.2939794063568115, 8.553145408630371, 11.20737075805664, 1.6631197929382324, 
106, 2326602281, -96.94505310058594, -65.11499786376953, -161.16685485839844, 9.118141174316406, -4.008207321166992, -0.3092276155948639, 8.598148345947266, 11.435462951660156, 1.5725220441818237, 
107, 2326610614, -96.65545654296875, -65.11417388916016, -161.4040985107422, 9.092629432678223, -4.024448394775391, -0.2620420753955841, 8.853549003601074, 11.727519035339355, 1.5359961986541748, 
108, 2326618947, -96.27864837646484, -65.12348937988281, -161.68447875976562, 9.124285697937012, -4.037256240844727, -0.2850891649723053, 8.859108924865723, 11.8632230758667, 1.5841511487960815, 
109, 2326627280, -95.98206329345703, -65.12080383300781, -161.9286651611328, 9.110430717468262, -4.032604217529297, -0.2885410785675049, 8.930570602416992, 12.060887336730957, 1.6579712629318237, 
110, 2326635613, -95.60089874267578, -65.12837982177734, -162.2179718017578, 9.095277786254883, -4.040335178375244, -0.2656354308128357, 9.03412914276123, 12.199946403503418, 1.6304872035980225, 
111, 2326643946, -95.29601287841797, -65.12541961669922, -162.46929931640625, 9.099305152893066, -4.032883167266846, -0.2941286861896515, 9.148931503295898, 12.427298545837402, 1.578669548034668, 
112, 2326652279, -94.910400390625, -65.13105773925781, -162.7589874267578, 9.104015350341797, -4.028690338134766, -0.296941876411438, 9.162714004516602, 12.566925048828125, 1.6950355768203735, 
113, 2326660612, -94.60099792480469, -65.1261215209961, -163.01539611816406, 9.104079246520996, -4.041724681854248, -0.24696621298789978, 9.132411003112793, 12.67626953125, 1.6856858730316162, 
114, 2326668945, -94.21224212646484, -65.13003540039062, -163.30856323242188, 9.082627296447754, -4.050418376922607, -0.2705262303352356, 9.399901390075684, 12.81901741027832, 1.7195477485656738, 
115, 2326677278, -93.89745330810547, -65.12416076660156, -163.5689697265625, 9.079158782958984, -4.0537428855896, -0.28086093068122864, 9.342217445373535, 12.883718490600586, 1.6575614213943481, 
116, 2326685611, -93.5109634399414, -65.12646484375, -163.85658264160156, 9.09421443939209, -4.04423713684082, -0.2726753056049347, 9.364500999450684, 12.909486770629883, 1.704076886177063, 
117, 2326693944, -93.19336700439453, -65.11908721923828, -164.1188507080078, 9.117095947265625, -4.032919883728027, -0.2599095106124878, 9.46972370147705, 12.982769012451172, 1.683995246887207, 
118, 2326702277, -92.8084716796875, -65.12078094482422, -164.4120330810547, 9.095396041870117, -4.037754058837891, -0.2701667547225952, 9.398721694946289, 13.010892868041992, 1.5834593772888184, 
119, 2326710610, -92.48993682861328, -65.11203002929688, -164.6754150390625, 9.115011215209961, -4.041429042816162, -0.27094656229019165, 9.46137523651123, 13.048700332641602, 1.6921406984329224, 
120, 2326718943, -92.10978698730469, -65.11166381835938, -164.95361328125, 9.109332084655762, -4.020865440368652, -0.2742648720741272, 9.467623710632324, 12.920628547668457, 1.6332536935806274, 
121, 2326727276, -91.79368591308594, -65.10160064697266, -165.21514892578125, 9.093461990356445, -4.044073581695557, -0.2772909104824066, 9.373543739318848, 12.9692964553833, 1.6807936429977417, 
122, 2326735609, -91.42073059082031, -65.0992660522461, -165.50827026367188, 9.098957061767578, -4.043764114379883, -0.27372416853904724, 9.402411460876465, 12.7614107131958, 1.6766952276229858, 
123, 2326743942, -91.10456085205078, -65.08731842041016, -165.76968383789062, 9.110381126403809, -4.03898811340332, -0.24128369987010956, 9.393574714660645, 12.980412483215332, 1.7556126117706299, 
124, 2326752275, -90.7336196899414, -65.08344268798828, -166.06344604492188, 9.109261512756348, -4.030999660491943, -0.22987379133701324, 9.433609008789062, 12.8546724319458, 1.6712392568588257, 
125, 2326760608, -90.42281341552734, -65.07073974609375, -166.3190155029297, 9.092195510864258, -4.008772373199463, -0.24208463728427887, 9.386697769165039, 12.705586433410645, 1.68733811378479, 
126, 2326768941, -90.05745697021484, -65.0656509399414, -166.58900451660156, 9.085691452026367, -4.034104824066162, -0.2442772090435028, 9.349081993103027, 12.793274879455566, 1.6494929790496826, 
127, 2326777274, -89.75003051757812, -65.05181884765625, -166.8428955078125, 9.089597702026367, -4.009215831756592, -0.2214963287115097, 9.167810440063477, 12.646071434020996, 1.6702919006347656, 
128, 2326785607, -89.39513397216797, -65.0453109741211, -167.11097717285156, 9.078573226928711, -4.013394355773926, -0.24662911891937256, 9.21984577178955, 12.48868465423584, 1.6572157144546509, 
129, 2326793940, -89.09403228759766, -65.02989196777344, -167.35809326171875, 9.103988647460938, -3.9906134605407715, -0.2606845498085022, 9.144757270812988, 12.328018188476562, 1.722237467765808, 
130, 2326802273, -88.747314453125, -65.02204132080078, -167.623779296875, 9.075132369995117, -4.011037826538086, -0.24383628368377686, 9.124958038330078, 12.305171012878418, 1.664528489112854, 
131, 2326810606, -88.45087432861328, -65.0058364868164, -167.8673095703125, 9.066563606262207, -4.006678581237793, -0.23690859973430634, 8.976496696472168, 12.175766944885254, 1.6819719076156616, 
132, 2326818939, -88.11796569824219, -64.99636840820312, -168.1249237060547, 9.06061840057373, -4.019718170166016, -0.2075875997543335, 8.94921875, 11.840503692626953, 1.7333029508590698, 
133, 2326827272, -87.83038330078125, -64.9793472290039, -168.35986328125, 9.09152889251709, -3.992033004760742, -0.2286931574344635, 8.859466552734375, 11.76891040802002, 1.6557172536849976, 
134, 2326835605, -87.50809478759766, -64.9697036743164, -168.5877685546875, 9.088789939880371, -4.019575595855713, -0.23431365191936493, 8.762796401977539, 11.54957389831543, 1.6393239498138428, 
135, 2326843938, -87.22654724121094, -64.95159912109375, -168.81590270996094, 9.083417892456055, -4.014072895050049, -0.23978284001350403, 8.871247291564941, 11.455108642578125, 1.679948091506958, 
136, 2326852271, -86.91706085205078, -64.94091033935547, -169.05706787109375, 9.08158016204834, -3.991018056869507, -0.22276374697685242, 8.519399642944336, 11.177054405212402, 1.6603150367736816, 
137, 2326860604, -86.64891815185547, -64.92325592041016, -169.27406311035156, 9.07718563079834, -4.0023064613342285, -0.20095941424369812, 8.478506088256836, 10.911653518676758, 1.5404531955718994, 
138, 2326868937, -86.35160827636719, -64.91202545166016, -169.49473571777344, 9.074466705322266, -4.017575740814209, -0.21747611463069916, 8.433194160461426, 10.749129295349121, 1.6478022336959839, 
139, 2326877270, -86.09418487548828, -64.89274597167969, -169.7017822265625, 9.065169334411621, -4.019525051116943, -0.2277115285396576, 8.2752046585083, 10.44309139251709, 1.661659598350525, 
140, 2326885603, -85.81562805175781, -64.88235473632812, -169.9096221923828, 9.03895378112793, -4.0105133056640625, -0.21619518101215363, 8.07441520690918, 10.075348854064941, 1.497831106185913, 
141, 2326893936, -85.57147979736328, -64.86318969726562, -170.10540771484375, 9.042115211486816, -4.009854316711426, -0.24094757437705994, 7.906885147094727, 9.894960403442383, 1.593794822692871, 
142, 2326902269, -85.30757141113281, -64.85242462158203, -170.301513671875, 9.05817985534668, -4.019469738006592, -0.21454879641532898, 7.815185546875, 9.58653736114502, 1.4981766939163208, 
143, 2326910602, -85.07852935791016, -64.83393096923828, -170.48304748535156, 9.034710884094238, -4.00300931930542, -0.2345760464668274, 7.650075912475586, 9.18659782409668, 1.4889299869537354, 
144, 2326918935, -84.83259582519531, -64.8229751586914, -170.66175842285156, 9.043699264526367, -4.00316858291626, -0.20956747233867645, 7.580892562866211, 8.896235466003418, 1.5155688524246216, 
145, 2326927268, -84.61832427978516, -64.80428314208984, -170.82891845703125, 9.034762382507324, -4.022336006164551, -0.2053607851266861, 7.44799280166626, 8.474355697631836, 1.499982476234436, 
146, 2326935601, -84.39473724365234, -64.79340362548828, -170.98606872558594, 9.022831916809082, -4.012535095214844, -0.20893773436546326, 7.220282077789307, 8.009764671325684, 1.540120005607605, 
147, 2326943934, -84.19697570800781, -64.775146484375, -171.1386260986328, 9.029337882995605, -4.001375675201416, -0.21199175715446472, 7.050882816314697, 7.747231960296631, 1.458141803741455, 
148, 2326952267, -83.99119567871094, -64.76473999023438, -171.28225708007812, 9.029735565185547, -4.001555442810059, -0.2241002470254898, 6.899654865264893, 7.352283954620361, 1.504733920097351, 
149, 2326960600, -83.81240844726562, -64.74664306640625, -171.41749572753906, 9.018972396850586, -4.020731449127197, -0.2219061553478241, 6.660571098327637, 6.877882957458496, 1.4833714962005615, 
150, 2326968933, -83.62718200683594, -64.73710632324219, -171.53909301757812, 9.015538215637207, -4.002187728881836, -0.20314666628837585, 6.548420429229736, 6.542606353759766, 1.4635847806930542, 
151, 2326977266, -83.46283721923828, -64.71916198730469, -171.66024780273438, 9.03272819519043, -4.004084587097168, -0.20630307495594025, 6.454659938812256, 6.176181793212891, 1.5020701885223389, 
152, 2326985599, -83.29844665527344, -64.71038818359375, -171.7664337158203, 9.01156997680664, -3.9977266788482666, -0.21508948504924774, 6.195468902587891, 5.712819576263428, 1.4546834230422974, 
153, 2326993932, -83.155517578125, -64.69373321533203, -171.8685760498047, 9.009489059448242, -3.990328073501587, -0.20153160393238068, 5.947344779968262, 5.202559471130371, 1.433449625968933, 
154, 2327002265, -83.01361083984375, -64.68622589111328, -171.95343017578125, 9.02287483215332, -3.9975192546844482, -0.20632946491241455, 5.805698394775391, 4.795241832733154, 1.4021748304367065, 
155, 2327010598, -82.887939453125, -64.67031860351562, -172.03916931152344, 9.024275779724121, -3.987212896347046, -0.20344442129135132, 5.65790319442749, 4.36702299118042, 1.4260470867156982, 
156, 2327018931, -82.76693725585938, -64.66249084472656, -172.10772705078125, 9.031027793884277, -3.9874799251556396, -0.19145962595939636, 5.441385746002197, 3.9649808406829834, 1.5534263849258423, 
157, 2327027264, -82.66127014160156, -64.64752197265625, -172.17520141601562, 9.01033878326416, -3.968292236328125, -0.2027626484632492, 5.241774082183838, 3.4316418170928955, 1.4130091667175293, 
158, 2327035597, -82.56108856201172, -64.64218139648438, -172.21983337402344, 9.012529373168945, -3.9706594944000244, -0.22279025614261627, 5.126996994018555, 3.0732216835021973, 1.3850129842758179, 
159, 2327043930, -82.47268676757812, -64.62882995605469, -172.27099609375, 9.020439147949219, -3.9778103828430176, -0.1591673344373703, 4.942163944244385, 2.5816843509674072, 1.3186209201812744, 
160, 2327052263, -82.39403533935547, -64.6247329711914, -172.29905700683594, 9.00513744354248, -3.987300395965576, -0.21303050220012665, 4.678901195526123, 2.2109181880950928, 1.3736659288406372, 
161, 2327060596, -82.32479095458984, -64.61308288574219, -172.33340454101562, 9.024016380310059, -3.9564948081970215, -0.20540188252925873, 4.466379642486572, 1.7037822008132935, 1.228100299835205, 
162, 2327068929, -82.26988983154297, -64.6102523803711, -172.33924865722656, 9.003499984741211, -3.9633679389953613, -0.1777571737766266, 4.279114246368408, 1.2009490728378296, 1.3824515342712402, 
163, 2327077262, -82.22212219238281, -64.5993423461914, -172.35374450683594, 9.005813598632812, -3.9736318588256836, -0.18847349286079407, 4.035702228546143, 0.6860260963439941, 1.2788419723510742, 
164, 2327085595, -82.1875991821289, -64.59800720214844, -172.33920288085938, 9.008131980895996, -3.9624578952789307, -0.22872525453567505, 3.881478786468506, 0.35993123054504395, 1.3475137948989868, 
165, 2327093928, -82.158203125, -64.58734893798828, -172.33755493164062, 9.010763168334961, -3.9931139945983887, -0.19109287858009338, 3.590475082397461, -0.1399177461862564, 1.357426404953003, 
166, 2327102261, -82.14668273925781, -64.58866119384766, -172.30422973632812, 9.003531455993652, -3.9824225902557373, -0.1776796579360962, 3.3718583583831787, -0.5920731425285339, 1.1907802820205688, 
167, 2327110594, -82.1357421875, -64.5802001953125, -172.28515625, 9.006426811218262, -3.972864866256714, -0.19614218175411224, 3.265315294265747, -1.0614794492721558, 1.2236560583114624, 
168, 2327118927, -82.14582824707031, -64.58255767822266, -172.23402404785156, 9.016085624694824, -3.964751720428467, -0.16027891635894775, 3.0108766555786133, -1.519756555557251, 1.2204158306121826, 
169, 2327127260, -82.15567779541016, -64.57549285888672, -172.1961669921875, 8.995874404907227, -3.9838414192199707, -0.18099907040596008, 2.80083966255188, -2.0419540405273438, 1.1978753805160522, 
170, 2327135593, -82.19005584716797, -64.57991790771484, -172.12278747558594, 8.989335060119629, -3.9860501289367676, -0.18983981013298035, 2.6076059341430664, -2.605236530303955, 1.1391674280166626, 
171, 2327143926, -82.21870422363281, -64.57476806640625, -172.06800842285156, 8.995040893554688, -3.9671030044555664, -0.1864623874425888, 2.3810477256774902, -2.932868003845215, 1.0913199186325073, 
172, 2327152259, -82.27484893798828, -64.5802993774414, -171.97503662109375, 8.993829727172852, -3.978217363357544, -0.19569402933120728, 2.1448850631713867, -3.5068836212158203, 1.1553813219070435, 
173, 2327160592, -82.32637786865234, -64.5762939453125, -171.8991241455078, 8.988762855529785, -3.9961211681365967, -0.19825981557369232, 1.930954933166504, -4.028722286224365, 1.0973395109176636, 
174, 2327168925, -82.40382385253906, -64.58331298828125, -171.78321838378906, 8.990792274475098, -3.996778726577759, -0.16947364807128906, 1.7955323457717896, -4.4439802169799805, 1.1161147356033325, 
175, 2327177258, -82.47400665283203, -64.579833984375, -171.69020080566406, 8.988005638122559, -3.9871387481689453, -0.19589650630950928, 1.544410228729248, -4.910774230957031, 1.1453148126602173, 
176, 2327185591, -82.57447814941406, -64.58775329589844, -171.5515899658203, 8.999853134155273, -3.9846034049987793, -0.2136116921901703, 1.4014315605163574, -5.452822208404541, 1.1482092142105103, 
177, 2327193924, -82.66452026367188, -64.58633422851562, -171.44053649902344, 9.000542640686035, -3.990302801132202, -0.2269924283027649, 1.1142961978912354, -5.861805438995361, 1.0084582567214966, 
178, 2327202257, -82.78546142578125, -64.59648895263672, -171.28504943847656, 8.995163917541504, -4.009171009063721, -0.18137235939502716, 0.9431672692298889, -6.31065559387207, 0.9901949763298035, 
179, 2327210590, -82.89514923095703, -64.5957260131836, -171.15560913085938, 9.013894081115723, -3.9833500385284424, -0.18544577062129974, 0.7556711435317993, -6.807713508605957, 1.0317414999008179, 
180, 2327218923, -83.04114532470703, -64.60636901855469, -170.97625732421875, 9.014360427856445, -3.9928057193756104, -0.2027186155319214, 0.5244514346122742, -7.429369926452637, 1.0545892715454102, 
181, 2327227256, -83.17073059082031, -64.60609436035156, -170.82872009277344, 9.011749267578125, -4.000700950622559, -0.2027164101600647, 0.3300907015800476, -7.737344264984131, 1.0591744184494019, 
182, 2327235589, -83.33356475830078, -64.61720275878906, -170.63214111328125, 9.020669937133789, -4.0111541748046875, -0.1849564015865326, 0.22567419707775116, -8.137667655944824, 1.0562670230865479, 
183, 2327243922, -83.48165893554688, -64.61734008789062, -170.46633911132812, 9.019054412841797, -3.990023374557495, -0.1905113309621811, 0.09625828266143799, -8.672684669494629, 1.0791276693344116, 
184, 2327252255, -83.66714477539062, -64.62981414794922, -170.2476806640625, 9.0367431640625, -3.970942974090576, -0.1695365011692047, -0.24231067299842834, -9.1217679977417, 0.979398787021637, 
185, 2327260588, -83.82920837402344, -64.63101959228516, -170.06924438476562, 9.046745300292969, -3.9848473072052, -0.17399051785469055, -0.21162481606006622, -9.329345703125, 0.9776057600975037, 
186, 2327268921, -84.03120422363281, -64.64409637451172, -169.83644104003906, 9.033041954040527, -3.9790048599243164, -0.1957620233297348, -0.5745401382446289, -9.813467025756836, 0.9312055706977844, 
187, 2327277254, -84.2125015258789, -64.64624786376953, -169.6412811279297, 9.050000190734863, -3.993715286254883, -0.20919916033744812, -0.7037127614021301, -10.190047264099121, 0.8970617651939392, 
188, 2327285587, -84.43228149414062, -64.66007995605469, -169.39315795898438, 9.023646354675293, -3.9919726848602295, -0.22223760187625885, -0.9460489749908447, -10.564323425292969, 0.8653257489204407, 
189, 2327293920, -84.62995147705078, -64.66183471679688, -169.1822509765625, 9.057344436645508, -3.9950106143951416, -0.1999218463897705, -0.9503778219223022, -10.98608684539795, 0.950236976146698, 
190, 2327302253, -84.8657455444336, -64.67552947998047, -168.91726684570312, 9.036033630371094, -3.997617721557617, -0.21953895688056946, -1.1886415481567383, -11.267075538635254, 0.8755714297294617, 
191, 2327310586, -85.07833099365234, -64.6778564453125, -168.69264221191406, 9.062896728515625, -3.974480628967285, -0.1744036078453064, -1.2492704391479492, -11.688480377197266, 0.8632767200469971, 
192, 2327318919, -85.32987213134766, -64.69097137451172, -168.41412353515625, 9.051318168640137, -3.9897611141204834, -0.21105210483074188, -1.4511874914169312, -11.94690227508545, 0.9168103337287903, 
193, 2327327252, -85.55514526367188, -64.69339752197266, -168.1791534423828, 9.064111709594727, -3.995220899581909, -0.20794489979743958, -1.6474565267562866, -12.211971282958984, 0.8098068833351135, 
194, 2327335585, -85.81913757324219, -64.7069091796875, -167.88815307617188, 9.054197311401367, -3.991337299346924, -0.19186952710151672, -1.6246087551116943, -12.499800682067871, 0.8145456314086914, 
195, 2327343918, -86.05541229248047, -64.70858001708984, -167.64349365234375, 9.07299518585205, -4.011149883270264, -0.20543262362480164, -1.9114497900009155, -12.694123268127441, 0.832283616065979, 
196, 2327352251, -86.33248901367188, -64.72198486328125, -167.3319854736328, 9.068181037902832, -4.019288063049316, -0.22290776669979095, -2.0679268836975098, -12.968603134155273, 0.7561579346656799, 
197, 2327360584, -86.58169555664062, -64.72274780273438, -167.07504272460938, 9.076703071594238, -4.012659072875977, -0.21117404103279114, -2.123189687728882, -13.308030128479004, 0.870205283164978, 
198, 2327368917, -86.8720703125, -64.73382568359375, -166.76962280273438, 9.079360961914062, -4.022060871124268, -0.19499781727790833, -2.261481523513794, -13.549113273620605, 0.9418613314628601, 
199, 2327377250, -87.13092041015625, -64.7350845336914, -166.50445556640625, 9.052419662475586, -4.010402679443359, -0.22839798033237457, -2.378525495529175, -13.725788116455078, 0.7066456079483032, 
200, 2327385583, -87.43234252929688, -64.74652099609375, -166.1847381591797, 9.060647964477539, -4.005550384521484, -0.1956155002117157, -2.4827499389648438, -14.02442455291748, 0.7944768667221069, 
201, 2327393916, -87.7014389038086, -64.74598693847656, -165.9093017578125, 9.063172340393066, -4.0261993408203125, -0.20700260996818542, -2.492086172103882, -14.235599517822266, 0.8182467818260193, 
202, 2327402249, -88.01179504394531, -64.75689697265625, -165.63333129882812, 9.062320709228516, -4.0238566398620605, -0.2552703619003296, -2.655773639678955, -14.402616500854492, 0.7208102345466614, 
203, 2327410582, -88.28941345214844, -64.7562255859375, -165.3518524169922, 9.0745267868042, -4.038387775421143, -0.2114349603652954, -2.8424251079559326, -14.542985916137695, 0.7037769556045532, 
204, 2327418915, -88.60940551757812, -64.76565551757812, -165.03005981445312, 9.07437515258789, -4.019185543060303, -0.23396751284599304, -2.8305654525756836, -14.820948600769043, 0.7555688619613647, 
205, 2327427248, -88.89497375488281, -64.76319122314453, -164.74127197265625, 9.067913055419922, -4.00745153427124, -0.23749502003192902, -3.006202459335327, -14.904041290283203, 0.7838469743728638, 
206, 2327435581, -89.22117614746094, -64.77164459228516, -164.40737915039062, 9.079875946044922, -4.01576042175293, -0.25401490926742554, -3.025848627090454, -15.048199653625488, 0.7149959206581116, 
207, 2327443914, -89.51199340820312, -64.76815795898438, -164.11280822753906, 9.0770263671875, -4.043039798736572, -0.23864348232746124, -3.006624937057495, -15.195391654968262, 0.7580277919769287, 
208, 2327452247, -89.8449478149414, -64.7742919921875, -163.7831268310547, 9.0849609375, -4.00579833984375, -0.23847514390945435, -3.2126152515411377, -15.31283187866211, 0.8206802606582642, 
209, 2327460580, -90.14038848876953, -64.76937103271484, -163.4842987060547, 9.083758354187012, -4.042386054992676, -0.2227894365787506, -3.0930986404418945, -15.414931297302246, 0.7656224370002747, 
210, 2327468913, -90.47726440429688, -64.77409362792969, -163.11868286132812, 9.069396018981934, -4.029122352600098, -0.25785142183303833, -3.065768241882324, -15.593308448791504, 0.8175936937332153, 
211, 2327477246, -90.77465057373047, -64.7677993774414, -162.81837463378906, 9.098133087158203, -4.016838073730469, -0.2616437077522278, -3.170377016067505, -15.490493774414062, 0.7677996158599854, 
212, 2327485579, -91.07121276855469, -64.76074981689453, -162.5183563232422, 9.096587181091309, -4.0452470779418945, -0.23581136763095856, -3.1043431758880615, -15.500968933105469, 0.7639062404632568, 
213, 2327493912, -91.40824127197266, -64.76437377929688, -162.15037536621094, 9.10389518737793, -4.010483264923096, -0.2451503574848175, -3.103370428085327, -15.562060356140137, 0.6909313797950745, 
214, 2327502245, -91.74632263183594, -64.76648712158203, -161.82855224609375, 9.113485336303711, -4.020922660827637, -0.2678895592689514, -3.1805968284606934, -15.61444091796875, 0.7659298181533813, 
215, 2327510578, -92.04633331298828, -64.75749969482422, -161.5252227783203, 9.094484329223633, -4.0162882804870605, -0.2502453029155731, -3.146991014480591, -15.660879135131836, 0.7532507181167603, 
216, 2327518911, -92.38277435302734, -64.75838470458984, -161.15525817871094, 9.11064624786377, -4.0155158042907715, -0.267350435256958, -3.0506815910339355, -15.601862907409668, 0.736729621887207, 
217, 2327527244, -92.67752838134766, -64.74836730957031, -160.85690307617188, 9.089936256408691, -4.0068182945251465, -0.2698296308517456, -3.0586862564086914, -15.412741661071777, 0.7191198468208313, 
218, 2327535577, -93.0137710571289, -64.74848937988281, -160.51046752929688, 9.112974166870117, -4.012943267822266, -0.253692626953125, -3.065422773361206, -15.606589317321777, 0.6512676477432251, 
219, 2327543910, -93.30762481689453, -64.73670196533203, -160.21310424804688, 9.109654426574707, -4.009200572967529, -0.2650645971298218, -3.0523977279663086, -15.381811141967773, 0.767671525478363, 
220, 2327552243, -93.63715362548828, -64.73468017578125, -159.8594512939453, 9.126426696777344, -4.025954723358154, -0.26942014694213867, -2.9283480644226074, -15.33642292022705, 0.75468510389328, 
221, 2327560576, -93.92546844482422, -64.72099304199219, -159.5664825439453, 9.100615501403809, -4.022974491119385, -0.24997685849666595, -2.876274347305298, -15.178741455078125, 0.8549392819404602, 
222, 2327568909, -94.24938201904297, -64.71723937988281, -159.2362518310547, 9.110597610473633, -4.017745494842529, -0.30682238936424255, -2.9303202629089355, -15.066910743713379, 0.8083726167678833, 
223, 2327577242, -94.53312683105469, -64.70246124267578, -158.94834899902344, 9.10849380493164, -4.015401840209961, -0.2581999599933624, -2.8726110458374023, -14.941272735595703, 0.8435921669006348, 
224, 2327585575, -94.85108947753906, -64.69806671142578, -158.62002563476562, 9.096332550048828, -4.0227437019348145, -0.24654388427734375, -2.826249599456787, -14.829875946044922, 0.7468728423118591, 
225, 2327593908, -95.12661743164062, -64.6834945678711, -158.33938598632812, 9.099865913391113, -4.0272111892700195, -0.289965957403183, -2.685166597366333, -14.580343246459961, 0.7053265571594238, 
226, 2327602241, -95.434326171875, -64.67705535888672, -158.0303497314453, 9.092703819274902, -4.030447959899902, -0.2690526843070984, -2.595874786376953, -14.431035995483398, 0.8708199858665466, 
227, 2327610574, -95.69921875, -64.66075897216797, -157.7592315673828, 9.095795631408691, -4.003435134887695, -0.2809135913848877, -2.439807176589966, -14.123023986816406, 0.8162105083465576, 
228, 2327618907, -95.99687194824219, -64.65426635742188, -157.45896911621094, 9.084765434265137, -4.031881809234619, -0.25330832600593567, -2.484478712081909, -13.979484558105469, 0.7847818732261658, 
229, 2327627240, -96.25398254394531, -64.63784790039062, -157.19615173339844, 9.08841323852539, -4.0332770347595215, -0.25151434540748596, -2.412451982498169, -13.713711738586426, 0.7416988611221313, 
230, 2327635573, -96.5390625, -64.63056182861328, -156.90896606445312, 9.108147621154785, -4.030148029327393, -0.25514915585517883, -2.196241617202759, -13.47688102722168, 0.8002784848213196, 
231, 2327643906, -96.78758239746094, -64.61260223388672, -156.65472412109375, 9.09880542755127, -4.030411243438721, -0.2677879333496094, -2.3138620853424072, -13.309208869934082, 0.8536072969436646, 
232, 2327652239, -97.05905151367188, -64.6048583984375, -156.39122009277344, 9.095730781555176, -4.028721809387207, -0.27499231696128845, -2.1708321571350098, -12.802713394165039, 0.8188487887382507, 
233, 2327660572, -97.29261016845703, -64.58647155761719, -156.1500244140625, 9.092944145202637, -4.0457634925842285, -0.26018065214157104, -1.9369744062423706, -12.663269996643066, 0.8740475177764893, 
234, 2327668905, -97.55328369140625, -64.57836151123047, -155.8914337158203, 9.089739799499512, -4.013668537139893, -0.27792075276374817, -1.878676414489746, -12.409381866455078, 0.8057599663734436, 
235, 2327677238, -97.7761459350586, -64.55921173095703, -155.6601104736328, 9.080642700195312, -4.023766994476318, -0.29721152782440186, -1.7241967916488647, -12.184026718139648, 0.9224327206611633, 
236, 2327685571, -98.02107238769531, -64.54988861083984, -155.40985107421875, 9.08012866973877, -4.022943496704102, -0.25856736302375793, -1.6319087743759155, -11.734881401062012, 0.9553983211517334, 
237, 2327693904, -98.2293930053711, -64.5313720703125, -155.19219970703125, 9.094799041748047, -4.027781009674072, -0.2935989201068878, -1.4627265930175781, -11.489008903503418, 0.8562455177307129, 
238, 2327702237, -98.46150207519531, -64.52316284179688, -154.95962524414062, 9.104849815368652, -4.011337757110596, -0.2900104224681854, -1.3692090511322021, -11.1985445022583, 0.8137131333351135, 
239, 2327710570, -98.65483856201172, -64.50473022460938, -154.7564697265625, 9.085649490356445, -4.018930912017822, -0.27608609199523926, -1.2419062852859497, -10.75879955291748, 0.877121090888977, 
240, 2327718903, -98.86861419677734, -64.49624633789062, -154.53460693359375, 9.085037231445312, -4.028791427612305, -0.31079885363578796, -1.0243390798568726, -10.411137580871582, 0.8956658840179443, 
241, 2327727236, -99.0466079711914, -64.4776840209961, -154.34498596191406, 9.086791038513184, -4.0227251052856445, -0.27165117859840393, -0.8749311566352844, -10.081252098083496, 0.9312952160835266, 
242, 2327735569, -99.2428970336914, -64.46830749511719, -154.13902282714844, 9.096376419067383, -4.012844562530518, -0.30436739325523376, -0.6804421544075012, -9.689685821533203, 1.066615104675293, 
243, 2327743902, -99.40420532226562, -64.44898223876953, -153.96481323242188, 9.10572338104248, -4.023108959197998, -0.3073314130306244, -0.5364133715629578, -9.319047927856445, 1.084673285484314, 
244, 2327752235, -99.583984375, -64.44094848632812, -153.77313232421875, 9.069731712341309, -4.008731365203857, -0.32265517115592957, -0.2864183485507965, -9.00558090209961, 0.9778105616569519, 
245, 2327760568, -99.72789001464844, -64.4231185913086, -153.61463928222656, 9.078065872192383, -4.007721900939941, -0.3227871060371399, -0.15903879702091217, -8.497830390930176, 0.999019205570221, 
246, 2327768901, -99.8888931274414, -64.41544342041016, -153.44082641601562, 9.07773208618164, -4.016796112060547, -0.3390132188796997, 0.011283069849014282, -8.15467643737793, 1.0435879230499268, 
247, 2327777234, -100.01819610595703, -64.39763641357422, -153.2955322265625, 9.081469535827637, -4.026912689208984, -0.3403991162776947, 0.16340604424476624, -7.833014011383057, 1.072096824645996, 
248, 2327785567, -100.16027069091797, -64.3909912109375, -153.13868713378906, 9.09991455078125, -4.00830602645874, -0.3157937228679657, 0.406997412443161, -7.337224006652832, 1.0463287830352783, 
249, 2327793900, -100.270751953125, -64.3746566772461, -153.00955200195312, 9.100826263427734, -4.007172584533691, -0.31419265270233154, 0.67192542552948, -6.983619213104248, 1.015130639076233, 
250, 2327802233, -100.3945083618164, -64.3690414428711, -152.869384765625, 9.085244178771973, -3.986624002456665, -0.30497512221336365, 0.7716160416603088, -6.537008762359619, 1.0532702207565308, 
251, 2327810566, -100.48724365234375, -64.3530502319336, -152.75616455078125, 9.08181381225586, -4.002414226531982, -0.33553045988082886, 1.0811384916305542, -6.170059680938721, 1.1016298532485962, 
252, 2327818899, -100.59098052978516, -64.34848022460938, -152.63343811035156, 9.086736679077148, -3.9988560676574707, -0.31976693868637085, 1.2510888576507568, -5.695350646972656, 1.0852622985839844, 
253, 2327827232, -100.66461181640625, -64.33333587646484, -152.5386505126953, 9.085333824157715, -4.005962371826172, -0.3275300860404968, 1.3746007680892944, -5.213239669799805, 1.1628735065460205, 
254, 2327835565, -100.74702453613281, -64.33011627197266, -152.43585205078125, 9.097461700439453, -3.994194507598877, -0.2920495867729187, 1.630589485168457, -4.720217227935791, 1.1072393655776978, 
255, 2327843898, -100.8021011352539, -64.31685638427734, -152.35647583007812, 9.067239761352539, -4.018626689910889, -0.2995356023311615, 1.936679720878601, -4.388564109802246, 1.0806775093078613, 
256, 2327852231, -100.86581420898438, -64.31602478027344, -152.26988220214844, 9.097807884216309, -4.009559631347656, -0.3194911479949951, 2.0775578022003174, -3.9106786251068115, 0.9904128909111023, 
257, 2327860564, -100.90135192871094, -64.30374908447266, -152.20806884765625, 9.090141296386719, -4.0032525062561035, -0.3220272660255432, 2.3852617740631104, -3.471318244934082, 1.1326487064361572, 
258, 2327868897, -100.94161224365234, -64.30332946777344, -152.14332580566406, 9.088973999023438, -4.02159309387207, -0.29971960186958313, 2.5043673515319824, -2.855628252029419, 1.1594666242599487, 
259, 2327877230, -100.95763397216797, -64.29228973388672, -152.10064697265625, 9.094721794128418, -4.016974449157715, -0.2865660488605499, 2.6544928550720215, -2.466369152069092, 1.1813414096832275, 
260, 2327885563, -100.97608184814453, -64.29304504394531, -152.05642700195312, 9.06253719329834, -4.014419078826904, -0.29924100637435913, 2.861558437347412, -1.853241205215454, 1.2351056337356567, 
261, 2327893896, -100.9725112915039, -64.28323364257812, -152.0322723388672, 9.072129249572754, -4.003293991088867, -0.3191625773906708, 3.0111968517303467, -1.4932843446731567, 1.2183794975280762, 
262, 2327902229, -100.9717788696289, -64.28568267822266, -152.0050811767578, 9.062110900878906, -4.045452117919922, -0.27379921078681946, 3.289930820465088, -1.0120439529418945, 1.2176878452301025, 
263, 2327910562, -100.94697570800781, -64.27782440185547, -152.0000762939453, 9.081250190734863, -4.0229692459106445, -0.2834870517253876, 3.478886842727661, -0.46891969442367554, 1.1893585920333862, 
264, 2327918895, -100.92623138427734, -64.28117370605469, -151.9919891357422, 9.063247680664062, -4.000429153442383, -0.28021541237831116, 3.5927934646606445, -0.08701155334711075, 1.3079267740249634, 
265, 2327927228, -100.88096618652344, -64.27436065673828, -152.0057373046875, 9.07068920135498, -4.026295185089111, -0.2776793837547302, 3.906298875808716, 0.5166646838188171, 1.2551230192184448, 
266, 2327935561, -100.83844757080078, -64.279296875, -152.01779174804688, 9.058589935302734, -4.018772602081299, -0.27882641553878784, 3.998613119125366, 0.9090493321418762, 1.328840970993042, 
267, 2327943894, -100.77530670166016, -64.27323150634766, -152.04917907714844, 9.064286231994629, -3.9988059997558594, -0.32006049156188965, 4.1451263427734375, 1.436471939086914, 1.345310926437378, 
268, 2327952227, -100.71394348144531, -64.27936553955078, -152.07872009277344, 9.058730125427246, -4.02517557144165, -0.3262481689453125, 4.338769912719727, 1.76541006565094, 1.3664683103561401, 
269, 2327960560, -100.63272857666016, -64.2752456665039, -152.1261444091797, 9.068384170532227, -4.0243425369262695, -0.32649725675582886, 4.5863189697265625, 2.301118850708008, 1.2684553861618042, 
270, 2327968893, -100.54867553710938, -64.28316497802734, -152.1762237548828, 9.078782081604004, -4.028580665588379, -0.32018718123435974, 4.806370735168457, 2.7982912063598633, 1.3617680072784424, 
271, 2327977226, -100.44863891601562, -64.2799301147461, -152.2402801513672, 9.069382667541504, -4.031051158905029, -0.27633461356163025, 5.038896560668945, 3.1749746799468994, 1.3217074871063232, 
272, 2327985559, -100.3462142944336, -64.28897857666016, -152.30706787109375, 9.085477828979492, -4.037023544311523, -0.31281089782714844, 5.179492473602295, 3.6167938709259033, 1.3839755058288574, 
273, 2327993892, -100.22827911376953, -64.2854995727539, -152.38824462890625, 9.089299201965332, -4.0174150466918945, -0.32930827140808105, 5.3392229080200195, 4.04870080947876, 1.5009300708770752, 
274, 2328002225, -100.10502624511719, -64.29529571533203, -152.4740753173828, 9.102694511413574, -4.005452632904053, -0.29554879665374756, 5.585683822631836, 4.5519700050354, 1.4711408615112305, 
275, 2328010558, -99.96788024902344, -64.29315185546875, -152.5729217529297, 9.101740837097168, -4.031072616577148, -0.3027854561805725, 5.729598045349121, 4.987168788909912, 1.4935662746429443, 
276, 2328018891, -99.82611083984375, -64.30413818359375, -152.67613220214844, 9.089287757873535, -4.028674125671387, -0.30955174565315247, 5.907655239105225, 5.409919738769531, 1.4739587306976318, 
277, 2328027224, -99.67005157470703, -64.303955078125, -152.79141235351562, 9.102997779846191, -4.015580654144287, -0.3302587866783142, 6.227524757385254, 5.872563362121582, 1.3835145235061646, 
278, 2328035557, -99.50801086425781, -64.31561279296875, -152.9119415283203, 9.099383354187012, -4.016446113586426, -0.30297282338142395, 6.4364094734191895, 6.2597737312316895, 1.5273641347885132, 
279, 2328043890, -99.33766174316406, -64.31517028808594, -153.0406494140625, 9.105987548828125, -4.0003838539123535, -0.31038928031921387, 6.4829254150390625, 6.56010103225708, 1.5016988515853882, 
280, 2328052223, -99.16000366210938, -64.32786560058594, -153.17587280273438, 9.114338874816895, -4.005026340484619, -0.29867175221443176, 6.6929612159729, 6.984349250793457, 1.505489468574524, 
281, 2328060556, -98.97193908691406, -64.32840728759766, -153.32106018066406, 9.106684684753418, -3.9829859733581543, -0.3270716369152069, 6.824055194854736, 7.425862789154053, 1.483538269996643, 
282, 2328068889, -98.77820587158203, -64.34255981445312, -153.4702606201172, 9.1082124710083, -3.996405601501465, -0.355004221200943, 7.098179817199707, 7.677342891693115, 1.4119209051132202, 
283, 2328077222, -98.57503509521484, -64.34263610839844, -153.62774658203125, 9.11563777923584, -3.989866018295288, -0.34077632427215576, 7.30598783493042, 8.052668571472168, 1.5873271226882935, 
284, 2328085555, -98.364501953125, -64.35710906982422, -153.7920684814453, 9.087716102600098, -4.005164623260498, -0.3180522918701172, 7.44357442855835, 8.424880981445312, 1.4555033445358276, 
285, 2328093888, -98.14796447753906, -64.35843658447266, -153.9622344970703, 9.079895973205566, -3.9939098358154297, -0.31913629174232483, 7.537539958953857, 8.7274751663208, 1.4814122915267944, 
286, 2328102221, -97.9236068725586, -64.37290954589844, -154.13876342773438, 9.078743934631348, -4.002989768981934, -0.3173273801803589, 7.746988296508789, 9.01822280883789, 1.4922983646392822, 
287, 2328110554, -97.69581604003906, -64.3743667602539, -154.31842041015625, 9.106688499450684, -4.002604961395264, -0.29792520403862, 7.8575119972229, 9.219216346740723, 1.465351939201355, 
288, 2328118887, -97.4581298828125, -64.38883972167969, -154.5199737548828, 9.117563247680664, -4.0068769454956055, -0.3158052861690521, 8.001748085021973, 9.610296249389648, 1.5145059823989868, 
289, 2328127220, -97.2158432006836, -64.38899230957031, -154.713134765625, 9.10843563079834, -4.029884338378906, -0.28558069467544556, 8.135811805725098, 9.897994041442871, 1.6382224559783936, 
290, 2328135553, -96.9657211303711, -64.40328979492188, -154.92337036132812, 9.109681129455566, -4.048964023590088, -0.2867945730686188, 8.283105850219727, 10.14034366607666, 1.5341392755508423, 
291, 2328143886, -96.7120361328125, -64.40387725830078, -155.1270751953125, 9.092521667480469, -4.024611949920654, -0.2664361596107483, 8.361960411071777, 10.451773643493652, 1.570114254951477, 
292, 2328152219, -96.44801330566406, -64.41808319091797, -155.34913635253906, 9.098620414733887, -4.046751499176025, -0.25767436623573303, 8.497896194458008, 10.788321495056152, 1.5430659055709839, 
293, 2328160552, -96.18648529052734, -64.41871643066406, -155.5599365234375, 9.08779525756836, -4.037696838378906, -0.2769932448863983, 8.531975746154785, 10.818099021911621, 1.5165424346923828, 
294, 2328168885, -95.9155044555664, -64.43119049072266, -155.78404235839844, 9.11373519897461, -4.052341938018799, -0.2751511037349701, 8.64200210571289, 11.061163902282715, 1.6899123191833496, 
295, 2328177218, -95.64207458496094, -64.43082427978516, -156.005859375, 9.102670669555664, -4.046934604644775, -0.25428423285484314, 8.759825706481934, 11.37657642364502, 1.5958309173583984, 
296, 2328185551, -95.35906982421875, -64.44387817382812, -156.25352478027344, 9.107684135437012, -4.043910026550293, -0.25007033348083496, 8.676630020141602, 11.706435203552246, 1.5856620073318481, 
297, 2328193884, -95.07707977294922, -64.44249725341797, -156.484619140625, 9.104071617126465, -4.051636219024658, -0.26366788148880005, 8.787721633911133, 11.848674774169922, 1.648699164390564, 
298, 2328202217, -94.78630828857422, -64.45452117919922, -156.73458862304688, 9.113761901855469, -4.048255443572998, -0.2520754337310791, 8.853472709655762, 12.029434204101562, 1.6355334520339966, 
299, 2328210550, -94.49728393554688, -64.45333099365234, -156.97280883789062, 9.097804069519043, -4.039950370788574, -0.24083924293518066, 8.859850883483887, 12.222333908081055, 1.5400691032409668, 
300, 2328218883, -94.20156860351562, -64.46430969238281, -157.20875549316406, 9.094164848327637, -4.031893730163574, -0.27776139974594116, 9.011384010314941, 12.20676040649414, 1.6597131490707397, 
301, 2328227216, -93.90795135498047, -64.46150970458984, -157.4499053955078, 9.085505485534668, -4.029653549194336, -0.25001829862594604, 9.086945533752441, 12.366336822509766, 1.6254924535751343, 
302, 2328235549, -93.60545349121094, -64.47126007080078, -157.71063232421875, 9.098870277404785, -4.0085649490356445, -0.29188814759254456, 9.086714744567871, 12.539233207702637, 1.710582971572876, 
303, 2328243882, -93.30772399902344, -64.46707153320312, -157.95643615722656, 9.084892272949219, -4.030330181121826, -0.24953332543373108, 9.076098442077637, 12.604255676269531, 1.680294156074524, 
304, 2328252215, -93.00480651855469, -64.47611999511719, -158.20803833007812, 9.110209465026855, -4.008017539978027, -0.24094007909297943, 9.159805297851562, 12.524620056152344, 1.6717132329940796, 
305, 2328260548, -92.7041244506836, -64.47090148925781, -158.45570373535156, 9.116853713989258, -4.017955780029297, -0.23197320103645325, 9.222535133361816, 12.703201293945312, 1.6815747022628784, 
306, 2328268881, -92.39652252197266, -64.4784927368164, -158.68954467773438, 9.108527183532715, -4.025593280792236, -0.27319979667663574, 9.16828441619873, 12.780865669250488, 1.7370041608810425, 
307, 2328277214, -92.09561920166016, -64.47180938720703, -158.93804931640625, 9.106377601623535, -4.012380123138428, -0.2579956352710724, 9.153287887573242, 12.751935958862305, 1.7318174839019775, 
308, 2328285547, -91.78632354736328, -64.47806549072266, -159.19869995117188, 9.102927207946777, -4.029898166656494, -0.2688254415988922, 9.100751876831055, 12.919244766235352, 1.7719545364379883, 
309, 2328293880, -91.48294067382812, -64.47101593017578, -159.44943237304688, 9.106057167053223, -4.020802021026611, -0.2704295814037323, 9.216670036315918, 12.876175880432129, 1.6449463367462158, 
310, 2328302213, -91.17461395263672, -64.47697448730469, -159.7026824951172, 9.109524726867676, -4.03415584564209, -0.2898593246936798, 9.22955322265625, 12.822463035583496, 1.67916738986969, 
311, 2328310546, -90.87422943115234, -64.46907043457031, -159.95028686523438, 9.098123550415039, -4.016673564910889, -0.24457749724388123, 9.189480781555176, 12.72498893737793, 1.6136587858200073, 
312, 2328318879, -90.56818389892578, -64.47418975830078, -160.20269775390625, 9.111002922058105, -4.016164779663086, -0.23722395300865173, 9.189736366271973, 12.73618221282959, 1.652976632118225, 
313, 2328327212, -90.27142333984375, -64.46501159667969, -160.4464111328125, 9.122002601623535, -4.0180487632751465, -0.2647158205509186, 9.18183422088623, 12.533456802368164, 1.631627082824707, 
314, 2328335545, -89.97032165527344, -64.46884155273438, -160.680908203125, 9.090188026428223, -4.018050670623779, -0.2803867757320404, 9.153709411621094, 12.49754524230957, 1.691794753074646, 
315, 2328343878, -89.67710876464844, -64.45862579345703, -160.92071533203125, 9.083410263061523, -4.009271144866943, -0.27425074577331543, 9.176774978637695, 12.347586631774902, 1.634508728981018, 
316, 2328352211, -89.38304901123047, -64.46171569824219, -161.1615753173828, 9.091056823730469, -4.00960636138916, -0.24640491604804993, 9.028098106384277, 12.199934005737305, 1.6600332260131836, 
317, 2328360544, -89.09635925292969, -64.45073699951172, -161.39549255371094, 9.078882217407227, -4.023533821105957, -0.26126402616500854, 9.033528327941895, 12.055829048156738, 1.6084461212158203, 
318, 2328368877, -88.8068618774414, -64.4527587890625, -161.6272430419922, 9.063350677490234, -3.995877265930176, -0.2851744294166565, 9.016289710998535, 11.987796783447266, 1.681574821472168, 
319, 2328377210, -88.525634765625, -64.44066619873047, -161.8551483154297, 9.077795028686523, -4.016728401184082, -0.22825422883033752, 9.032323837280273, 11.762701034545898, 1.6299365758895874, 
320, 2328385543, -88.24472045898438, -64.44253540039062, -162.082763671875, 9.085065841674805, -4.01885461807251, -0.24362052977085114, 8.931171417236328, 11.589186668395996, 1.6052954196929932, 
321, 2328393876, -87.97148895263672, -64.43003845214844, -162.3032684326172, 9.064421653747559, -4.028385639190674, -0.25747284293174744, 8.873924255371094, 11.396363258361816, 1.5832160711288452, 
322, 2328402209, -87.69937133789062, -64.4316177368164, -162.5173797607422, 9.076456069946289, -4.03596830368042, -0.2156420350074768, 8.757712364196777, 11.218446731567383, 1.5579347610473633, 
323, 2328410542, -87.43706512451172, -64.41852569580078, -162.72915649414062, 9.068862915039062, -4.017488956451416, -0.2089168131351471, 8.509102821350098, 10.963587760925293, 1.5716900825500488, 
324, 2328418875, -87.17826843261719, -64.4195785522461, -162.93080139160156, 9.073827743530273, -4.021119594573975, -0.21063855290412903, 8.479131698608398, 10.646916389465332, 1.5551940202713013, 
325, 2328427208, -86.92523956298828, -64.40499114990234, -163.13307189941406, 9.055036544799805, -4.0138840675354, -0.1967565268278122, 8.42139720916748, 10.495638847351074, 1.683547019958496, 
326, 2328435541, -86.67747497558594, -64.40515899658203, -163.3236541748047, 9.059436798095703, -3.997953414916992, -0.17754550278186798, 8.18103313446045, 10.21821117401123, 1.6078311204910278, 
327, 2328443874, -86.4375228881836, -64.39009857177734, -163.51498413085938, 9.068591117858887, -3.9768779277801514, -0.1727808266878128, 8.044432640075684, 9.947827339172363, 1.6852118968963623, 
328, 2328452207, -86.20047760009766, -64.39008331298828, -163.69813537597656, 9.07663631439209, -4.0011515617370605, -0.18818967044353485, 8.014721870422363, 9.744245529174805, 1.5890306234359741, 
329, 2328460540, -85.97262573242188, -64.37562561035156, -163.87789916992188, 9.046856880187988, -3.9963722229003906, -0.17323830723762512, 7.847330570220947, 9.358724594116211, 1.5786821842193604, 
330, 2328468873, -85.75057220458984, -64.37583923339844, -164.04624938964844, 9.05101490020752, -3.9837565422058105, -0.20537760853767395, 7.774229049682617, 9.057785034179688, 1.55209481716156, 
331, 2328477206, -85.5350341796875, -64.36116027832031, -164.21453857421875, 9.037569999694824, -3.9819624423980713, -0.1926213800907135, 7.607108116149902, 8.780726432800293, 1.5851755142211914, 
332, 2328485539, -85.32872009277344, -64.36174774169922, -164.37254333496094, 9.04460334777832, -3.984100341796875, -0.19779059290885925, 7.404000282287598, 8.396730422973633, 1.507218599319458, 
333, 2328493872, -85.12633514404297, -64.34764099121094, -164.52964782714844, 9.064119338989258, -3.9779558181762695, -0.19286157190799713, 7.24818754196167, 8.208849906921387, 1.5022748708724976, 
334, 2328502205, -84.93074035644531, -64.34815216064453, -164.67579650878906, 9.057121276855469, -3.9863483905792236, -0.21011137962341309, 7.264069557189941, 7.917949676513672, 1.5197182893753052, 
335, 2328510538, -84.74688720703125, -64.33423614501953, -164.81614685058594, 9.04895305633545, -3.9769704341888428, -0.18419308960437775, 6.834569931030273, 7.3508758544921875, 1.5079612731933594, 
336, 2328518871, -84.57054138183594, -64.33583068847656, -164.94046020507812, 9.050731658935547, -3.9752790927886963, -0.19383010268211365, 6.758470058441162, 7.114404678344727, 1.4378294944763184, 
337, 2328527204, -84.40235900878906, -64.32233428955078, -165.0662841796875, 9.047401428222656, -3.9904439449310303, -0.2063923478126526, 6.525585651397705, 6.604579925537109, 1.4905692338943481, 
338, 2328535537, -84.24266052246094, -64.32499694824219, -165.18106079101562, 9.010751724243164, -4.016161918640137, -0.1824050396680832, 6.450586795806885, 6.368621349334717, 1.3612430095672607, 
339, 2328543870, -84.08769989013672, -64.31334686279297, -165.2941131591797, 9.020862579345703, -4.033125877380371, -0.2154666632413864, 6.319953918457031, 5.931027412414551, 1.3048659563064575, 
340, 2328552203, -83.9481201171875, -64.31707763671875, -165.3903350830078, 9.006715774536133, -4.034106731414795, -0.21666085720062256, 5.982229709625244, 5.4984025955200195, 1.3030216693878174, 
341, 2328560536, -83.8116683959961, -64.3065414428711, -165.4869842529297, 9.015870094299316, -4.037700653076172, -0.2252468317747116, 5.8732428550720215, 5.076229572296143, 1.2433664798736572, 
342, 2328568869, -83.69107055664062, -64.31128692626953, -165.56285095214844, 9.02505111694336, -4.044378280639648, -0.23027728497982025, 5.746553897857666, 4.588790416717529, 1.2683401107788086, 
343, 2328577202, -83.57646942138672, -64.30056762695312, -165.63885498046875, 9.02942943572998, -4.035946369171143, -0.21195288002490997, 5.4888739585876465, 4.014339447021484, 1.3637018203735352, 
344, 2328585535, -83.47733306884766, -64.3046646118164, -165.704345703125, 9.006153106689453, -3.991691827774048, -0.17957299947738647, 5.281886100769043, 3.669367551803589, 1.448177695274353, 
345, 2328593868, -83.37893676757812, -64.2942123413086, -165.76585388183594, 9.010615348815918, -3.991614818572998, -0.18020844459533691, 5.114675998687744, 3.2657384872436523, 1.4091672897338867, 
346, 2328602201, -83.2988052368164, -64.29933166503906, -165.80569458007812, 8.959000587463379, -3.97503924369812, -0.21915292739868164, 4.956943511962891, 2.792976140975952, 1.4378807544708252, 
347, 2328610534, -83.2172622680664, -64.2896728515625, -165.85186767578125, 8.964932441711426, -3.968280076980591, -0.23718594014644623, 4.748264789581299, 2.467188835144043, 1.4058117866516113, 
348, 2328618867, -83.15543365478516, -64.2961196899414, -165.87710571289062, 8.958812713623047, -3.9773011207580566, -0.2186075896024704, 4.536357879638672, 2.011460304260254, 1.3742036819458008, 
349, 2328627200, -83.09197235107422, -64.2879867553711, -165.90618896484375, 8.960578918457031, -3.9656436443328857, -0.2218102067708969, 4.428112030029297, 1.5673350095748901, 1.328687310218811, 
350, 2328635533, -83.05045318603516, -64.29545593261719, -165.9158172607422, 9.022777557373047, -3.9909443855285645, -0.24224725365638733, 4.299810886383057, 1.023903489112854, 1.3921594619750977, 
351, 2328643866, -83.00904083251953, -64.28852844238281, -165.923828125, 9.055717468261719, -4.010058403015137, -0.20522327721118927, 4.059587478637695, 0.4641427993774414, 1.3222452402114868, 
352, 2328652199, -82.98916625976562, -64.29769134521484, -165.90972900390625, 9.062334060668945, -4.01535177230835, -0.19682255387306213, 3.8274967670440674, 0.06607191264629364, 1.321758508682251, 
353, 2328660532, -82.96479034423828, -64.29153442382812, -165.90176391601562, 9.084916114807129, -4.014031887054443, -0.17647680640220642, 3.747580051422119, -0.3692803978919983, 1.3376649618148804, 
354, 2328668865, -82.96453094482422, -64.30170440673828, -165.8708953857422, 9.065666198730469, -4.003079414367676, -0.16103649139404297, 3.465195894241333, -0.822434663772583, 1.325255036354065, 
355, 2328677198, -82.95977020263672, -64.29707336425781, -165.8468475341797, 9.030977249145508, -3.9689550399780273, -0.16202211380004883, 3.1322622299194336, -1.2199162244796753, 1.2639600038528442, 
356, 2328685531, -82.97816467285156, -64.3092041015625, -165.80502319335938, 9.014259338378906, -3.9756715297698975, -0.17688047885894775, 2.996788501739502, -1.621342658996582, 1.2051241397857666, 
357, 2328693864, -82.99192810058594, -64.30615234375, -165.7622528076172, 9.00156307220459, -3.9563422203063965, -0.1896577775478363, 2.935058355331421, -2.205782413482666, 1.1983875036239624, 
358, 2328702197, -83.03387451171875, -64.3199691772461, -165.6970672607422, 8.986774444580078, -3.9389488697052, -0.20638073980808258, 2.575101375579834, -2.7179133892059326, 1.1525636911392212, 
359, 2328710530, -83.06694793701172, -64.31914520263672, -165.6377716064453, 9.011566162109375, -3.9322030544281006, -0.19322971999645233, 2.4075329303741455, -3.091240882873535, 1.040091633796692, 
360, 2328718863, -83.12914276123047, -64.3348617553711, -165.55517578125, 9.027175903320312, -3.9279093742370605, -0.17768369615077972, 2.1976630687713623, -3.645315647125244, 1.054089903831482, 
361, 2328727196, -83.18328857421875, -64.3345947265625, -165.47621154785156, 9.014564514160156, -3.9188482761383057, -0.17897017300128937, 2.013483762741089, -4.109381675720215, 1.0947011709213257, 
362, 2328735529, -83.26445007324219, -64.35066223144531, -165.3738250732422, 8.994230270385742, -3.9461567401885986, -0.1683935970067978, 1.7590833902359009, -4.450793743133545, 1.1112736463546753, 
363, 2328743862, -83.33634185791016, -64.35152435302734, -165.27902221679688, 8.970837593078613, -3.958207130432129, -0.16850093007087708, 1.593768835067749, -4.938283443450928, 1.054614782333374, 
364, 2328752195, -83.4391098022461, -64.36902618408203, -165.16085815429688, 8.980827331542969, -3.9472639560699463, -0.19597631692886353, 1.3363715410232544, -5.433867454528809, 1.0578677654266357, 
365, 2328760528, -83.52963256835938, -64.37081146240234, -165.05030822753906, 8.992122650146484, -3.9918551445007324, -0.18871410191059113, 1.0694199800491333, -5.757503986358643, 1.0244158506393433, 
366, 2328768861, -83.64925384521484, -64.38965606689453, -164.91709899902344, 9.001338005065918, -3.999715805053711, -0.17521853744983673, 1.0296666622161865, -6.190640449523926, 0.9676289558410645, 
367, 2328777194, -83.75630950927734, -64.39264678955078, -164.7906951904297, 9.025936126708984, -4.020288944244385, -0.16520623862743378, 0.8020073175430298, -6.584613800048828, 0.9586640000343323, 
368, 2328785527, -83.89907836914062, -64.4127426147461, -164.64093017578125, 9.038609504699707, -4.0512495040893555, -0.15681584179401398, 0.5306758284568787, -7.217771530151367, 0.905207097530365, 
369, 2328793860, -84.0284194946289, -64.41658020019531, -164.49400329589844, 9.052977561950684, -4.042674541473389, -0.20118358731269836, 0.352912962436676, -7.646067142486572, 0.9437565803527832, 
370, 2328802193, -84.19208526611328, -64.4364242553711, -164.32130432128906, 9.039551734924316, -4.0210862159729, -0.180453822016716, 0.14477165043354034, -8.149463653564453, 0.9962913393974304, 
371, 2328810526, -84.3403549194336, -64.44078063964844, -164.1586456298828, 9.021328926086426, -4.02238655090332, -0.1769779920578003, -0.2084614485502243, -8.45614242553711, 0.929438054561615, 
372, 2328818859, -84.52286529541016, -64.46112823486328, -163.9741668701172, 9.02644157409668, -4.010818958282471, -0.1983199119567871, -0.24765126407146454, -8.970426559448242, 0.9702417254447937, 
373, 2328827192, -84.68998718261719, -64.46513366699219, -163.79275512695312, 8.997761726379395, -3.993206024169922, -0.20968320965766907, -0.43530118465423584, -9.407892227172852, 1.0137859582901, 
374, 2328835525, -84.8885498046875, -64.48631286621094, -163.5933380126953, 9.012776374816895, -4.0123491287231445, -0.2116139829158783, -0.5184449553489685, -9.697305679321289, 0.8846645355224609, 
375, 2328843858, -85.07062530517578, -64.49101257324219, -163.3985595703125, 9.003759384155273, -4.01616096496582, -0.2329469621181488, -0.7747538089752197, -10.091880798339844, 0.9375835061073303, 
376, 2328852191, -85.28736114501953, -64.51274108886719, -163.18267822265625, 9.020833969116211, -4.007534980773926, -0.21493171155452728, -0.9466637969017029, -10.461661338806152, 0.8121762275695801, 
377, 2328860524, -85.48343658447266, -64.51754760742188, -162.97500610351562, 9.025665283203125, -4.018130779266357, -0.21716013550758362, -1.0485060214996338, -10.7481050491333, 0.9111753106117249, 
378, 2328868857, -85.7139892578125, -64.53789520263672, -162.74990844726562, 9.038971900939941, -4.006542682647705, -0.2056397646665573, -1.230264663696289, -11.027350425720215, 0.9404522776603699, 
379, 2328877190, -85.9251937866211, -64.54244232177734, -162.52810668945312, 9.056593894958496, -4.014993667602539, -0.21247461438179016, -1.3198374509811401, -11.462920188903809, 0.9162723422050476, 
380, 2328885523, -86.17152404785156, -64.56266021728516, -162.28762817382812, 9.057953834533691, -4.0187883377075195, -0.2432149201631546, -1.5250459909439087, -11.720742225646973, 0.9154913425445557, 
381, 2328893856, -86.3962173461914, -64.56652069091797, -162.05364990234375, 9.063182830810547, -4.0366291999816895, -0.1904391497373581, -1.6134663820266724, -12.070733070373535, 0.9519146084785461, 
382, 2328902189, -86.6549072265625, -64.58618927001953, -161.80258178710938, 9.071528434753418, -4.0319390296936035, -0.2130536139011383, -1.667678952217102, -12.287469863891602, 0.9017237424850464, 
383, 2328910522, -86.88977813720703, -64.58956909179688, -161.55889892578125, 9.064669609069824, -4.009632587432861, -0.21525068581104279, -1.7789217233657837, -12.553936958312988, 0.9423734545707703, 
384, 2328918855, -87.1612319946289, -64.6084976196289, -161.29373168945312, 9.081199645996094, -4.005612850189209, -0.22811424732208252, -1.8814297914505005, -12.854365348815918, 0.9146077036857605, 
385, 2328927188, -87.40715789794922, -64.6121597290039, -161.04022216796875, 9.081624984741211, -4.0010833740234375, -0.2567344605922699, -2.029146909713745, -13.049595832824707, 0.8228061199188232, 
386, 2328935521, -87.68990325927734, -64.63121795654297, -160.77960205078125, 9.078208923339844, -3.9993197917938232, -0.204607754945755, -2.1989312171936035, -13.284363746643066, 0.781631350517273, 
387, 2328943854, -87.94568634033203, -64.63358306884766, -160.51722717285156, 9.100784301757812, -3.9754536151885986, -0.23196043074131012, -2.2402725219726562, -13.48802375793457, 0.8799515962600708, 
388, 2328952187, -88.24028778076172, -64.65185546875, -160.2251739501953, 9.075525283813477, -3.9759039878845215, -0.2357703149318695, -2.298557996749878, -13.859673500061035, 0.770348310470581, 
389, 2328960520, -88.50708770751953, -64.65385437011719, -159.951416015625, 9.064266204833984, -3.980491876602173, -0.22582237422466278, -2.3239924907684326, -14.058258056640625, 0.8180162906646729, 
390, 2328968853, -88.8088150024414, -64.67139434814453, -159.66456604003906, 9.064154624938965, -3.972717761993408, -0.2268785983324051, -2.4452245235443115, -14.143579483032227, 0.7149701714515686, 
391, 2328977186, -89.08235931396484, -64.67292785644531, -159.3852081298828, 9.086151123046875, -3.9794442653656006, -0.21708351373672485, -2.5143063068389893, -14.332715034484863, 0.7379205822944641, 
392, 2328985519, -89.39126586914062, -64.6898422241211, -159.0869903564453, 9.097095489501953, -3.9921233654022217, -0.20333753526210785, -2.604442834854126, -14.43330192565918, 0.6444798111915588, 
393, 2328993852, -89.67027282714844, -64.69025421142578, -158.80360412597656, 9.1018648147583, -4.033637046813965, -0.2426632195711136, -2.7268924713134766, -14.526016235351562, 0.7352440357208252, 
394, 2329002185, -89.98539733886719, -64.70409393310547, -158.509033203125, 9.084129333496094, -4.008955478668213, -0.2170548439025879, -2.743131637573242, -14.68356990814209, 0.8500983119010925, 
395, 2329010518, -90.27351379394531, -64.7031478881836, -158.2163848876953, 9.094674110412598, -4.025704860687256, -0.2389143854379654, -2.8008272647857666, -14.99233341217041, 0.7470648884773254, 
396, 2329018851, -90.59705352783203, -64.71654510498047, -157.88282775878906, 9.098265647888184, -4.021862030029297, -0.20776905119419098, -2.9468798637390137, -15.038056373596191, 0.7369984984397888, 
397, 2329027184, -90.88964080810547, -64.71400451660156, -157.58636474609375, 9.077876091003418, -4.017183780670166, -0.22603735327720642, -2.9281814098358154, -15.177807807922363, 0.7839750051498413, 
398, 2329035517, -91.2173080444336, -64.72525024414062, -157.26388549804688, 9.089404106140137, -4.033724784851074, -0.2245195209980011, -2.973992347717285, -15.24142074584961, 0.8057599663734436, 
399, 2329043850, -91.5120849609375, -64.72163391113281, -156.96560668945312, 9.077784538269043, -4.028925895690918, -0.21595865488052368, -2.9899120330810547, -15.265742301940918, 0.7549541592597961, 
400, 2329052183, -91.8419189453125, -64.73188781738281, -156.70411682128906, 9.073745727539062, -4.0111165046691895, -0.21598197519779205, -3.0277698040008545, -15.326088905334473, 0.718351423740387, 
401, 2329060516, -92.13847351074219, -64.7281494140625, -156.4052276611328, 9.123800277709961, -4.051063537597656, -0.21841885149478912, -3.111912727355957, -15.300065994262695, 0.605341374874115, 
402, 2329068849, -92.4701919555664, -64.7373046875, -156.1517333984375, 9.085760116577148, -4.042578220367432, -0.2331741899251938, -3.0488500595092773, -15.418221473693848, 0.6573894619941711, 
403, 2329077182, -92.76673889160156, -64.73169708251953, -155.85289001464844, 9.087282180786133, -4.042364597320557, -0.23695282638072968, -3.1002838611602783, -15.304625511169434, 0.6657397747039795, 
404, 2329085515, -93.09684753417969, -64.73894500732422, -155.5520477294922, 9.104079246520996, -4.048061370849609, -0.24770259857177734, -3.0830070972442627, -15.328766822814941, 0.71826171875, 
405, 2329093848, -93.3926773071289, -64.7316665649414, -155.25396728515625, 9.119705200195312, -4.052246570587158, -0.22687958180904388, -3.106431007385254, -15.267329216003418, 0.7074652314186096, 
406, 2329102181, -93.71891784667969, -64.73739624023438, -154.96517944335938, 9.10978889465332, -4.029687881469727, -0.234176903963089, -3.091625928878784, -15.122429847717285, 0.7270346283912659, 
407, 2329110514, -94.00997161865234, -64.72905731201172, -154.67213439941406, 9.110125541687012, -4.055113792419434, -0.2581648826599121, -3.070981025695801, -15.01858901977539, 0.6883826851844788, 
408, 2329118847, -94.3331069946289, -64.7321548461914, -154.35128784179688, 9.095301628112793, -4.0524210929870605, -0.27451711893081665, -2.9948296546936035, -15.032113075256348, 0.8841779232025146, 
409, 2329127180, -94.6185302734375, -64.72126770019531, -154.06329345703125, 9.092338562011719, -4.054585933685303, -0.2691233456134796, -2.9449331760406494, -14.781658172607422, 0.8565914034843445, 
410, 2329135513, -94.93516540527344, -64.72372436523438, -153.7608184814453, 9.100485801696777, -4.021695137023926, -0.27267691493034363, -2.9093806743621826, -14.73055648803711, 0.804364025592804, 
411, 2329143846, -95.21556854248047, -64.7123794555664, -153.4774627685547, 9.09373950958252, -4.039389133453369, -0.28465819358825684, -2.8422203063964844, -14.554588317871094, 0.7812087535858154, 
412, 2329152179, -95.52368927001953, -64.71331787109375, -153.17910766601562, 9.106817245483398, -4.015993118286133, -0.2870165705680847, -2.7166333198547363, -14.381561279296875, 0.8544141054153442, 
413, 2329160512, -95.79682922363281, -64.70033264160156, -152.90167236328125, 9.083806991577148, -4.016965389251709, -0.29258811473846436, -2.6135101318359375, -14.27382755279541, 0.8616629242897034, 
414, 2329168845, -96.09715270996094, -64.70034790039062, -152.60939025878906, 9.141663551330566, -4.016602516174316, -0.2931373715400696, -2.4272563457489014, -14.120718955993652, 0.833935558795929, 
415, 2329177178, -96.36241912841797, -64.68669128417969, -152.3394012451172, 9.115206718444824, -4.0188493728637695, -0.2843284606933594, -2.4830572605133057, -13.90588092803955, 0.8472166061401367, 
416, 2329185511, -96.65377807617188, -64.68568420410156, -152.05880737304688, 9.11640453338623, -3.9939374923706055, -0.2686130702495575, -2.3679981231689453, -13.686676025390625, 0.8495475649833679, 
417, 2329193844, -96.90680694580078, -64.6713638305664, -151.79898071289062, 9.129342079162598, -4.008561134338379, -0.2978377640247345, -2.119321823120117, -13.405492782592773, 0.8624441623687744, 
418, 2329202177, -97.18695068359375, -64.67036437988281, -151.5266876220703, 9.114980697631836, -4.01933479309082, -0.3016301691532135, -2.0620741844177246, -13.244046211242676, 0.7714623808860779, 
419, 2329210510, -97.430908203125, -64.65560913085938, -151.27516174316406, 9.114767074584961, -4.011092662811279, -0.3086256682872772, -1.9299944639205933, -12.995037078857422, 0.8457820415496826, 
420, 2329218843, -97.69869995117188, -64.65300750732422, -151.00357055664062, 9.129721641540527, -4.012298107147217, -0.28622132539749146, -1.9571713209152222, -12.664563179016113, 0.9140953421592712, 
421, 2329227176, -97.93219757080078, -64.6375961303711, -150.7618408203125, 9.144027709960938, -4.005560874938965, -0.27218204736709595, -1.7358641624450684, -12.513107299804688, 0.8772364854812622, 
422, 2329235509, -98.18741607666016, -64.6349868774414, -150.50003051757812, 9.124582290649414, -4.023883819580078, -0.3232903778553009, -1.5364699363708496, -12.208693504333496, 0.8651080131530762, 
423, 2329243842, -98.40830993652344, -64.62042999267578, -150.2696990966797, 9.124364852905273, -4.014829635620117, -0.2647700011730194, -1.4632261991500854, -11.923006057739258, 0.7613064050674438, 
424, 2329252175, -98.65029907226562, -64.61735534667969, -150.02093505859375, 9.0917329788208, -4.007335662841797, -0.27442947030067444, -1.3845903873443604, -11.593886375427246, 0.9047460556030273, 
425, 2329260508, -98.85729217529297, -64.60198211669922, -149.8041534423828, 9.08073902130127, -4.003791809082031, -0.26478007435798645, -1.267072319984436, -11.256420135498047, 0.870499849319458, 
426, 2329268841, -99.08550262451172, -64.59893035888672, -149.56788635253906, 9.072636604309082, -4.01130485534668, -0.26470398902893066, -1.1138349771499634, -11.00300407409668, 0.900429904460907, 
427, 2329277174, -99.27993774414062, -64.58348846435547, -149.36172485351562, 9.075654983520508, -4.003661632537842, -0.2930399477481842, -0.919154167175293, -10.721492767333984, 0.8846902251243591, 
428, 2329285507, -99.49288177490234, -64.58097076416016, -149.1390380859375, 9.076556205749512, -4.020805358886719, -0.2788567841053009, -0.7688241600990295, -10.356565475463867, 0.8566169142723083, 
429, 2329293840, -99.67291259765625, -64.56697845458984, -148.94622802734375, 9.093766212463379, -4.009521961212158, -0.30194348096847534, -0.6391776204109192, -10.019161224365234, 0.7597309947013855, 
430, 2329302173, -99.86937713623047, -64.56474304199219, -148.7394561767578, 9.076343536376953, -4.008395671844482, -0.28423285484313965, -0.5404987335205078, -9.589828491210938, 0.8784913420677185, 
431, 2329310506, -100.03279876708984, -64.55050659179688, -148.56260681152344, 9.081202507019043, -4.035838603973389, -0.27316001057624817, -0.37556877732276917, -9.219192504882812, 0.8647623658180237, 
432, 2329318839, -100.21170043945312, -64.54791259765625, -148.37246704101562, 9.074071884155273, -4.020176887512207, -0.2866019904613495, -0.2657092809677124, -8.805290222167969, 1.0016191005706787, 
433, 2329327172, -100.35852813720703, -64.53386688232422, -148.21160888671875, 9.075712203979492, -4.032884120941162, -0.2989104986190796, -0.11747969686985016, -8.406042098999023, 0.9407852292060852, 
434, 2329335505, -100.52147674560547, -64.53262329101562, -148.035888671875, 9.089463233947754, -4.048696517944336, -0.3143971264362335, 0.06370259076356888, -8.099565505981445, 0.9151453375816345, 
435, 2329343838, -100.6507568359375, -64.51874542236328, -147.89111328125, 9.084527969360352, -4.0675201416015625, -0.3077749013900757, 0.23385798931121826, -7.589562892913818, 1.0385805368423462, 
436, 2329352171, -100.79371643066406, -64.51726531982422, -147.73345947265625, 9.099785804748535, -4.03373384475708, -0.28851696848869324, 0.48394253849983215, -7.242168426513672, 1.0606470108032227, 
437, 2329360504, -100.90638732910156, -64.50434875488281, -147.60398864746094, 9.073060035705566, -4.046918869018555, -0.29941633343696594, 0.5701088905334473, -6.794278621673584, 1.0414620637893677, 
438, 2329368837, -101.02825927734375, -64.50373077392578, -147.46592712402344, 9.074501991271973, -4.038034439086914, -0.30022555589675903, 0.8652361035346985, -6.2832746505737305, 1.105830430984497, 
439, 2329377170, -101.11981964111328, -64.49156188964844, -147.3556365966797, 9.07983112335205, -4.012335777282715, -0.2977919280529022, 1.0267595052719116, -5.809103965759277, 1.1199697256088257, 
440, 2329385503, -101.22238159179688, -64.49332427978516, -147.23558044433594, 9.083966255187988, -4.019782066345215, -0.3051871657371521, 1.2045221328735352, -5.3688459396362305, 0.977912962436676, 
441, 2329393836, -101.2945785522461, -64.482421875, -147.1427459716797, 9.071935653686523, -4.015669345855713, -0.30379918217658997, 1.4591277837753296, -4.8958024978637695, 1.1297029256820679, 
442, 2329402169, -101.37630462646484, -64.48383331298828, -147.04095458984375, 9.089982032775879, -3.996734142303467, -0.33658018708229065, 1.6992355585098267, -4.505722999572754, 1.183339238166809, 
443, 2329410502, -101.42970275878906, -64.47425079345703, -146.96514892578125, 9.078336715698242, -3.9963691234588623, -0.3206867277622223, 1.8726950883865356, -4.003069877624512, 1.1407171487808228, 
444, 2329418835, -101.49085998535156, -64.47775268554688, -146.88246154785156, 9.082247734069824, -4.004011154174805, -0.3262058198451996, 2.069873809814453, -3.5410914421081543, 1.1185096502304077, 
445, 2329427168, -101.52464294433594, -64.46971130371094, -146.82421875, 9.082818984985352, -3.987713098526001, -0.32109469175338745, 2.3272194862365723, -3.078420639038086, 1.1346464157104492, 
446, 2329435501, -101.5654525756836, -64.47369384765625, -146.76002502441406, 9.068037033081055, -3.9996862411499023, -0.322881281375885, 2.4822113513946533, -2.6442854404449463, 1.2443010807037354, 
447, 2329443834, -101.57781219482422, -64.4666748046875, -146.72206115722656, 9.077845573425293, -4.005151271820068, -0.3447977304458618, 2.699394702911377, -2.0253944396972656, 1.2290350198745728, 
448, 2329452167, -101.59767150878906, -64.4725570678711, -146.67669677734375, 9.09517765045166, -4.010733604431152, -0.32813897728919983, 2.9365181922912598, -1.6970326900482178, 1.209324836730957, 
449, 2329460500, -101.59295654296875, -64.46658325195312, -146.652587890625, 9.075124740600586, -4.010042190551758, -0.33217474818229675, 3.250446319580078, -1.297348141670227, 1.2505382299423218, 
450, 2329468833, -101.59054565429688, -64.47412109375, -146.62786865234375, 9.079751968383789, -3.9945626258850098, -0.30317366123199463, 3.3432466983795166, -0.6645357608795166, 1.2249494791030884, 
451, 2329477166, -101.56715393066406, -64.46949005126953, -146.6212921142578, 9.056714057922363, -4.001215934753418, -0.2697390615940094, 3.5916662216186523, -0.3770158588886261, 1.281339168548584, 
452, 2329485499, -101.54654693603516, -64.47766876220703, -146.61265563964844, 9.077174186706543, -4.026154041290283, -0.3104836344718933, 3.7611043453216553, 0.11338140815496445, 1.3133313655853271, 
453, 2329493832, -101.50334167480469, -64.47464752197266, -146.6241912841797, 9.094218254089355, -4.002676010131836, -0.3060935139656067, 4.013840675354004, 0.578843355178833, 1.2791109085083008, 
454, 2329502165, -101.46249389648438, -64.48407745361328, -146.63392639160156, 9.065399169921875, -4.009704113006592, -0.3088376224040985, 4.164528846740723, 1.0204839706420898, 1.354672908782959, 
455, 2329510498, -101.40103149414062, -64.48258209228516, -146.66275024414062, 9.070252418518066, -4.0153703689575195, -0.3036233186721802, 4.332737445831299, 1.4927335977554321, 1.2820308208465576, 
456, 2329518831, -101.340087890625, -64.49468994140625, -146.69052124023438, 9.042984962463379, -4.011120319366455, -0.29384130239486694, 4.601840496063232, 1.9465153217315674, 1.2153056859970093, 
457, 2329527164, -101.26175689697266, -64.49417114257812, -146.73472595214844, 9.054713249206543, -4.004830360412598, -0.3246605098247528, 4.6861371994018555, 2.295663356781006, 1.3228601217269897, 
458, 2329535497, -101.18252563476562, -64.50666046142578, -146.78048706054688, 9.060093879699707, -4.0078558921813965, -0.27783772349357605, 4.825939655303955, 2.815708875656128, 1.3399189710617065, 
459, 2329543830, -101.0876235961914, -64.5069808959961, -146.84011840820312, 9.064846992492676, -4.027204990386963, -0.2736304998397827, 4.999975204467773, 3.0994505882263184, 1.377303123474121, 
460, 2329552163, -100.98944854736328, -64.52034759521484, -146.90232849121094, 9.086658477783203, -4.014695167541504, -0.2917511463165283, 5.291004180908203, 3.6174979209899902, 1.3838601112365723, 
461, 2329560496, -100.87495422363281, -64.5218505859375, -146.9793243408203, 9.070260047912598, -4.026766300201416, -0.2823971211910248, 5.473582744598389, 4.003197193145752, 1.3988189697265625, 
462, 2329568829, -100.75860595703125, -64.53656005859375, -147.0586700439453, 9.075664520263672, -4.009040832519531, -0.32003864645957947, 5.581111431121826, 4.466610431671143, 1.3768421411514282, 
463, 2329577162, -100.62615966796875, -64.53971099853516, -147.1521453857422, 9.059661865234375, -4.0157599449157715, -0.3099917769432068, 5.840264320373535, 4.877245903015137, 1.352111577987671, 
464, 2329585495, -100.49219512939453, -64.55496215820312, -147.2469482421875, 9.069706916809082, -4.020694732666016, -0.3016500473022461, 6.0088958740234375, 5.213649749755859, 1.4268667697906494, 
465, 2329593828, -100.3408432006836, -64.55890655517578, -147.35853576660156, 9.090513229370117, -4.019986629486084, -0.28837132453918457, 6.148441791534424, 5.810922622680664, 1.4018926620483398, 
466, 2329602161, -100.18607330322266, -64.57511138916016, -147.47225952148438, 9.07478141784668, -4.0414228439331055, -0.2971894443035126, 6.423511505126953, 6.146827220916748, 1.4643402099609375, 
467, 2329610494, -100.0196762084961, -64.57952117919922, -147.59861755371094, 9.091805458068848, -4.033668041229248, -0.295888751745224, 6.344351768493652, 6.567221641540527, 1.4554905891418457, 
468, 2329618827, -99.84952545166016, -64.5965347290039, -147.72732543945312, 9.090189933776855, -4.026369094848633, -0.30322006344795227, 6.6176557540893555, 6.881431579589844, 1.457155466079712, 
469, 2329627160, -99.66593170166016, -64.60061645507812, -147.8677215576172, 9.080170631408691, -4.019603729248047, -0.295389324426651, 6.884749412536621, 7.270728588104248, 1.5820890665054321, 
470, 2329635493, -99.47898864746094, -64.61763000488281, -148.01229858398438, 9.102712631225586, -4.012411117553711, -0.3029518723487854, 6.89980936050415, 7.637961387634277, 1.5398765802383423, 
471, 2329643826, -99.27874755859375, -64.62269592285156, -148.16876220703125, 9.078604698181152, -4.015861511230469, -0.3137228786945343, 7.139763832092285, 8.104907989501953, 1.5549379587173462, 
472, 2329652159, -99.07331848144531, -64.64087677001953, -148.3287811279297, 9.085240364074707, -4.024020195007324, -0.29699766635894775, 7.408611297607422, 8.408565521240234, 1.4753289222717285, 
473, 2329660492, -98.85868835449219, -64.64620971679688, -148.497802734375, 9.090292930603027, -4.008029937744141, -0.31208616495132446, 7.492369174957275, 8.743419647216797, 1.5728166103363037, 
474, 2329668825, -98.63874816894531, -64.66387939453125, -148.6719207763672, 9.108797073364258, -4.019796848297119, -0.3095899522304535, 7.638987064361572, 9.058834075927734, 1.5733033418655396, 
475, 2329677158, -98.4102554321289, -64.66888427734375, -148.8535614013672, 9.094548225402832, -4.018605709075928, -0.2981887459754944, 7.793233871459961, 9.37601375579834, 1.635750651359558, 
476, 2329685491, -98.17589569091797, -64.68675994873047, -149.04002380371094, 9.094572067260742, -4.027418613433838, -0.2952544093132019, 7.903042793273926, 9.698883056640625, 1.5728424787521362, 
477, 2329693824, -97.93492126464844, -64.69222259521484, -149.23277282714844, 9.117969512939453, -4.020256519317627, -0.32722529768943787, 8.0833158493042, 9.946266174316406, 1.5893378257751465, 
478, 2329702157, -97.68985748291016, -64.71044158935547, -149.4288787841797, 9.106471061706543, -4.01833963394165, -0.3004628121852875, 8.17333698272705, 10.133160591125488, 1.5153511762619019, 
479, 2329710490, -97.4368667602539, -64.71537780761719, -149.6332244873047, 9.112225532531738, -4.010751247406006, -0.30566471815109253, 8.264420509338379, 10.523366928100586, 1.6447029113769531, 
480, 2329718823, -97.1794204711914, -64.73250579833984, -149.8390655517578, 9.103944778442383, -4.004547119140625, -0.2830120325088501, 8.426559448242188, 10.656919479370117, 1.621932029724121, 
481, 2329727156, -96.91729736328125, -64.73735809326172, -150.0507354736328, 9.111129760742188, -4.013275146484375, -0.3131331503391266, 8.557616233825684, 10.89184284210205, 1.6077290773391724, 
482, 2329735489, -96.65023040771484, -64.75384521484375, -150.26673889160156, 9.089984893798828, -4.012042045593262, -0.2527822256088257, 8.623265266418457, 11.058897018432617, 1.6534503698349, 
483, 2329743822, -96.3812026977539, -64.75785827636719, -150.48500061035156, 9.10303783416748, -4.012515544891357, -0.2755521833896637, 8.667461395263672, 11.21238899230957, 1.6493136882781982, 
484, 2329752155, -96.10662841796875, -64.77405548095703, -150.7103729248047, 9.11225700378418, -4.01774263381958, -0.2851733863353729, 8.788167953491211, 11.3674955368042, 1.6102901697158813, 
485, 2329760488, -95.83139038085938, -64.77783966064453, -150.93411254882812, 9.101968765258789, -4.017802715301514, -0.24639680981636047, 8.806148529052734, 11.485808372497559, 1.6067041158676147, 
486, 2329768821, -95.54853820800781, -64.79290008544922, -151.1788330078125, 9.09042739868164, -4.026983261108398, -0.25489214062690735, 8.953534126281738, 11.710012435913086, 1.6665138006210327, 
487, 2329777154, -95.26490783691406, -64.79540252685547, -151.410888671875, 9.104533195495605, -4.033954620361328, -0.2792600095272064, 8.918597221374512, 11.890745162963867, 1.6862367391586304, 
488, 2329785487, -94.97753143310547, -64.80987548828125, -151.64967346191406, 9.093204498291016, -4.020522117614746, -0.2669147849082947, 8.983274459838867, 11.916386604309082, 1.636135458946228, 
489, 2329793820, -94.68965148925781, -64.81220245361328, -151.8858642578125, 9.100229263305664, -4.029280662536621, -0.26476916670799255, 8.971284866333008, 12.101473808288574, 1.608651041984558, 
490, 2329802153, -94.39547729492188, -64.82608032226562, -152.13792419433594, 9.07764720916748, -4.042403221130371, -0.25829365849494934, 9.05583667755127, 12.237561225891113, 1.6159254312515259, 
491, 2329810486, -94.1032943725586, -64.82635498046875, -152.37791442871094, 9.083616256713867, -4.031214237213135, -0.2405811846256256, 9.071744918823242, 12.273241996765137, 1.7509126663208008, 
492, 2329818819, -93.80967712402344, -64.83946990966797, -152.59286499023438, 9.105430603027344, -4.015603542327881, -0.23213236033916473, 9.006479263305664, 12.204902648925781, 1.5750195980072021, 
493, 2329827152, -93.51625061035156, -64.83922576904297, -152.83396911621094, 9.104854583740234, -4.023763656616211, -0.2567329406738281, 9.092849731445312, 12.331718444824219, 1.6922048330307007, 
494, 2329835485, -93.21996307373047, -64.85111999511719, -153.11431884765625, 9.0960054397583, -4.0345778465271, -0.260384738445282, 9.08857250213623, 12.297755241394043, 1.5941534042358398, 
495, 2329843818, -92.926025390625, -64.84944915771484, -153.35569763183594, 9.09450912475586, -4.013248443603516, -0.25087833404541016, 9.139287948608398, 12.328158378601074, 1.738566517829895, 
496, 2329852151, -92.62779235839844, -64.86093139648438, -153.5917510986328, 9.098517417907715, -4.014126777648926, -0.23784451186656952, 9.170293807983398, 12.351839065551758, 1.522933006286621, 
497, 2329860484, -92.33372497558594, -64.85894775390625, -153.83383178710938, 9.095152854919434, -4.003901481628418, -0.2464800477027893, 9.062305450439453, 12.37228012084961, 1.6555635929107666, 
498, 2329868817, -92.0341796875, -64.86800384521484, -154.05101013183594, 9.090209007263184, -4.007038116455078, -0.25595757365226746, 9.1723051071167, 12.411559104919434, 1.6839569807052612, 
499, 2329877150, -91.73661041259766, -64.86515045166016, -154.29666137695312, 9.088204383850098, -4.027410984039307, -0.2304314374923706, 9.080657005310059, 12.559454917907715, 1.6434608697891235, 
500, 2329885483, -91.43711853027344, -64.87380981445312, -154.5281219482422, 9.104533195495605, -4.046574115753174, -0.2625468373298645, 9.095207214355469, 12.447035789489746, 1.5985335111618042, 
501, 2329893816, -91.14408874511719, -64.86961364746094, -154.76925659179688, 9.11483383178711, -4.031871318817139, -0.24414460361003876, 9.036677360534668, 12.328516960144043, 1.6686651706695557, 
502, 2329902149, -90.84937286376953, -64.87662506103516, -155.03085327148438, 9.08517074584961, -4.04711389541626, -0.24964426457881927, 8.972142219543457, 12.243157386779785, 1.656434416770935, 
503, 2329910482, -90.5610122680664, -64.8714828491211, -155.2669219970703, 9.098543167114258, -4.045127868652344, -0.2538427412509918, 9.031721115112305, 12.070646286010742, 1.6594313383102417, 
504, 2329918815, -90.26774597167969, -64.8769760131836, -155.48683166503906, 9.10029411315918, -4.020924091339111, -0.23841606080532074, 8.977560997009277, 12.167147636413574, 1.7134902477264404, 
505, 2329927148, -89.98295593261719, -64.87049102783203, -155.7199249267578, 9.100177764892578, -4.017288684844971, -0.24876312911510468, 8.912040710449219, 11.929935455322266, 1.7023224830627441, 
506, 2329935481, -89.70011901855469, -64.87531280517578, -155.9440460205078, 9.097793579101562, -3.9989850521087646, -0.262387216091156, 8.738348960876465, 11.713826179504395, 1.6665390729904175, 
507, 2329943814, -89.42400360107422, -64.86788177490234, -156.16917419433594, 9.064900398254395, -4.021844863891602, -0.24415114521980286, 8.740191459655762, 11.531810760498047, 1.7080597877502441, 
508, 2329952147, -89.14575958251953, -64.87169647216797, -156.40147399902344, 9.093972206115723, -4.0035719871521, -0.22891798615455627, 8.767805099487305, 11.46641731262207, 1.6759651899337769, 
509, 2329960480, -88.8763198852539, -64.8641128540039, -156.62020874023438, 9.077392578125, -4.012643814086914, -0.22773632407188416, 8.641783714294434, 11.210891723632812, 1.6180514097213745, 
510, 2329968813, -88.60643005371094, -64.86722564697266, -156.83985900878906, 9.071752548217773, -4.019776344299316, -0.23093996942043304, 8.516990661621094, 11.140298843383789, 1.6641570329666138, 
511, 2329977146, -88.3470230102539, -64.85895538330078, -157.04920959472656, 9.087688446044922, -3.993107318878174, -0.24253404140472412, 8.453672409057617, 10.743739128112793, 1.6160024404525757, 
512, 2329985479, -88.089111328125, -64.86201477050781, -157.2574005126953, 9.050966262817383, -3.9958455562591553, -0.21476975083351135, 8.34486198425293, 10.580266952514648, 1.5751218795776367, 
513, 2329993812, -87.84063720703125, -64.85292053222656, -157.45668029785156, 9.055973052978516, -4.007695198059082, -0.20264491438865662, 8.23364543914795, 10.243569374084473, 1.642743468284607, 
514, 2330002145, -87.59700775146484, -64.85575103759766, -157.65252685546875, 9.046682357788086, -4.007169723510742, -0.23330563306808472, 8.04937744140625, 9.946470260620117, 1.5384678840637207, 
515, 2330010478, -87.36042785644531, -64.84646606445312, -157.84066772460938, 9.036748886108398, -4.002923488616943, -0.22317534685134888, 8.0192289352417, 9.68315601348877, 1.6031440496444702, 
516, 2330018811, -87.13015747070312, -64.84819030761719, -158.02305603027344, 9.061345100402832, -3.9916787147521973, -0.2105986326932907, 7.876557350158691, 9.313566207885742, 1.6251976490020752, 
517, 2330027144, -86.90727996826172, -64.83910369873047, -158.1981964111328, 9.0510892868042, -4.003762245178223, -0.2396322637796402, 7.791415214538574, 9.028121948242188, 1.538647174835205, 
518, 2330035477, -86.69039916992188, -64.84027099609375, -158.36854553222656, 9.031717300415039, -4.0076799392700195, -0.20576094090938568, 7.579995632171631, 8.741497039794922, 1.6465085744857788, 
519, 2330043810, -86.48126220703125, -64.83087921142578, -158.5314483642578, 9.04538631439209, -3.994629144668579, -0.23117738962173462, 7.468752861022949, 8.41494369506836, 1.5496101379394531, 
520, 2330052143, -86.2792739868164, -64.83311462402344, -158.6878204345703, 9.025197982788086, -4.002725601196289, -0.20107915997505188, 7.2913994789123535, 8.070969581604004, 1.5015066862106323, 
521, 2330060476, -86.08455657958984, -64.82394409179688, -158.83872985839844, 9.03912353515625, -3.988304615020752, -0.19003736972808838, 7.04348087310791, 7.809474468231201, 1.5042985677719116, 
522, 2330068809, -85.89781188964844, -64.8264389038086, -158.98130798339844, 9.038119316101074, -3.982893943786621, -0.20780320465564728, 6.992916584014893, 7.388528823852539, 1.4646732807159424, 
523, 2330077142, -85.71904754638672, -64.81744384765625, -159.1162872314453, 9.042238235473633, -4.004857063293457, -0.23606574535369873, 6.865229606628418, 6.999935626983643, 1.49684476852417, 
524, 2330085475, -85.5478744506836, -64.82005310058594, -159.2450714111328, 9.037569999694824, -4.005980014801025, -0.1887093186378479, 6.620691776275635, 6.726990222930908, 1.4576294422149658, 
525, 2330093808, -85.38654327392578, -64.8115463256836, -159.3644256591797, 9.063057899475098, -3.9944465160369873, -0.21087153255939484, 6.466006755828857, 6.208020210266113, 1.4651598930358887, 
526, 2330102141, -85.23336029052734, -64.8140869140625, -159.47511291503906, 9.049385070800781, -3.9913597106933594, -0.20645830035209656, 6.456349849700928, 5.83791971206665, 1.497408151626587, 
527, 2330110474, -85.0844497680664, -64.80579376220703, -159.58363342285156, 9.041909217834473, -3.993155002593994, -0.18879088759422302, 6.156842231750488, 5.657159805297852, 1.4551957845687866, 
528, 2330118807, -84.94734191894531, -64.8094253540039, -159.68080139160156, 9.050477027893066, -3.994462013244629, -0.17971540987491608, 6.002312183380127, 5.177380561828613, 1.4006634950637817, 
529, 2330127140, -84.81731414794922, -64.80143737792969, -159.7715606689453, 9.02374267578125, -3.9833853244781494, -0.1885899156332016, 5.81120491027832, 4.753106117248535, 1.4772499799728394, 
530, 2330135473, -84.6986083984375, -64.8042984008789, -159.8527374267578, 9.025213241577148, -3.989680290222168, -0.2107367366552353, 5.547608375549316, 4.406417369842529, 1.5452556610107422, 
531, 2330143806, -84.58651733398438, -64.79786682128906, -159.92819213867188, 9.027620315551758, -3.985527753829956, -0.1754322201013565, 5.322638511657715, 3.9629833698272705, 1.3446705341339111, 
532, 2330152139, -84.48426818847656, -64.80238342285156, -159.99520874023438, 9.019641876220703, -4.003859996795654, -0.2063644975423813, 5.129122257232666, 3.7019224166870117, 1.39894700050354, 
533, 2330160472, -84.38841247558594, -64.79669189453125, -160.05572509765625, 9.015052795410156, -3.9767568111419678, -0.21998679637908936, 4.994724750518799, 3.197066307067871, 1.3237180709838867, 
534, 2330168805, -84.30641174316406, -64.80187225341797, -160.10260009765625, 9.02639102935791, -3.996669292449951, -0.22006173431873322, 4.910299777984619, 2.707859992980957, 1.4030709266662598, 
535, 2330177138, -84.22785186767578, -64.79657745361328, -160.1466064453125, 9.02933406829834, -3.988316774368286, -0.1866772621870041, 4.714146614074707, 2.3518481254577637, 1.353072166442871, 
536, 2330185471, -84.16478729248047, -64.80255126953125, -160.17694091796875, 9.027183532714844, -3.9984896183013916, -0.20763325691223145, 4.448936939239502, 1.8977843523025513, 1.3912626504898071, 
537, 2330193804, -84.10720825195312, -64.79817962646484, -160.20217895507812, 8.998461723327637, -3.9854421615600586, -0.1612878292798996, 4.2305498123168945, 1.3886501789093018, 1.3377546072006226, 
538, 2330202137, -84.06449890136719, -64.80567932128906, -160.21311950683594, 9.016658782958984, -3.9832310676574707, -0.20246335864067078, 4.125428676605225, 0.9305396676063538, 1.3072993755340576, 
539, 2330210470, -84.02737426757812, -64.80213165283203, -160.21897888183594, 8.996167182922363, -4.001517295837402, -0.18907751142978668, 3.8945932388305664, 0.39415180683135986, 1.337447166442871, 
540, 2330218803, -84.00533294677734, -64.8114242553711, -160.21107482910156, 9.017033576965332, -3.9760994911193848, -0.1898447871208191, 3.7069175243377686, -0.01207711175084114, 1.1908056735992432, 
541, 2330227136, -83.98725891113281, -64.8099136352539, -160.19932556152344, 9.032846450805664, -3.9899702072143555, -0.23842014372348785, 3.512582302093506, -0.5236958265304565, 1.196517825126648, 
542, 2330235469, -83.98704528808594, -64.81991577148438, -160.17178344726562, 9.001269340515137, -3.992260694503784, -0.20712044835090637, 3.2420451641082764, -0.9790914058685303, 1.205918312072754, 
543, 2330243802, -83.9889144897461, -64.81890106201172, -160.14158630371094, 9.001155853271484, -3.9733996391296387, -0.20807307958602905, 3.12642240524292, -1.4656848907470703, 1.2363734245300293, 
544, 2330252135, -84.01005554199219, -64.83014678955078, -160.0941925048828, 8.991710662841797, -3.9828696250915527, -0.1904502809047699, 2.857421398162842, -1.964368462562561, 1.1634753942489624, 
545, 2330260468, -84.03362274169922, -64.8304214477539, -160.0450439453125, 8.997175216674805, -3.9929375648498535, -0.21498146653175354, 2.5795323848724365, -2.443969249725342, 1.1882442235946655, 
546, 2330268801, -84.07435607910156, -64.84248352050781, -159.9791259765625, 8.993611335754395, -3.970607042312622, -0.19809973239898682, 2.536680221557617, -2.877439022064209, 1.1591721773147583, 
547, 2330277134, -84.11625671386719, -64.84449768066406, -159.91201782226562, 8.99194622039795, -3.990647315979004, -0.18461093306541443, 2.3284878730773926, -3.372793197631836, 1.0749527215957642, 
548, 2330285467, -84.17626190185547, -64.85750579833984, -159.82838439941406, 9.014983177185059, -3.980966091156006, -0.18626751005649567, 2.1673741340637207, -3.7478110790252686, 1.129382848739624, 
549, 2330293800, -84.23759460449219, -64.86016082763672, -159.74313354492188, 9.022771835327148, -3.9955646991729736, -0.20108036696910858, 1.971169114112854, -4.298696517944336, 1.0848140716552734, 
550, 2330302133, -84.32048797607422, -64.87474060058594, -159.63880920410156, 9.011947631835938, -3.999107599258423, -0.23297758400440216, 1.6956878900527954, -4.7784504890441895, 1.0290775299072266, 
551, 2330310466, -84.40047454833984, -64.87777709960938, -159.53744506835938, 9.030007362365723, -3.978470802307129, -0.20414823293685913, 1.4820398092269897, -5.116713047027588, 1.115243911743164, 
552, 2330318799, -84.49897766113281, -64.89312744140625, -159.41909790039062, 9.027005195617676, -4.012523651123047, -0.16812515258789062, 1.3504592180252075, -5.454000473022461, 0.9933199882507324, 
553, 2330327132, -84.59874725341797, -64.89691925048828, -159.29942321777344, 9.040030479431152, -3.976292133331299, -0.17818978428840637, 1.107866883277893, -6.050479412078857, 1.0949829816818237, 
554, 2330335465, -84.72048950195312, -64.91297149658203, -159.160400390625, 9.017756462097168, -3.983931064605713, -0.18937557935714722, 0.8325394988059998, -6.471500396728516, 0.9796932935714722, 
555, 2330343798, -84.83660125732422, -64.9183349609375, -159.02452087402344, 9.033509254455566, -3.9942526817321777, -0.16707396507263184, 0.9075379371643066, -6.8826470375061035, 0.9605849981307983, 
556, 2330352131, -84.9747085571289, -64.93392944335938, -158.86947631835938, 9.023179054260254, -4.001077175140381, -0.17152293026447296, 0.629777193069458, -7.2423858642578125, 1.0718531608581543, 
557, 2330360464, -85.11019134521484, -64.93892669677734, -158.71737670898438, 9.026573181152344, -4.001343250274658, -0.1969674974679947, 0.35398876667022705, -7.692660331726074, 1.0419360399246216, 
558, 2330368797, -85.26693725585938, -64.95561981201172, -158.54598999023438, 9.036421775817871, -3.9913382530212402, -0.18851783871650696, 0.1830393522977829, -8.039860725402832, 0.9704723358154297, 
559, 2330377130, -85.41754913330078, -64.96111297607422, -158.37979125976562, 9.023139953613281, -3.9892585277557373, -0.19843831658363342, 0.06846684217453003, -8.403658866882324, 1.0057941675186157, 
560, 2330385463, -85.5917739868164, -64.97869110107422, -158.19273376464844, 9.046101570129395, -3.9893505573272705, -0.19593091309070587, -0.18223248422145844, -8.807211875915527, 0.871575653553009, 
561, 2330393796, -85.7608642578125, -64.98409271240234, -158.01052856445312, 9.039656639099121, -3.9923717975616455, -0.18761970102787018, -0.40579360723495483, -9.20530891418457, 1.0336114168167114, 
562, 2330402129, -85.9517593383789, -65.00076293945312, -157.80758666992188, 9.03707504272461, -4.001865863800049, -0.1884007453918457, -0.4391689598560333, -9.561296463012695, 0.9707797169685364, 
563, 2330410462, -86.13510131835938, -65.00716400146484, -157.6116943359375, 9.00833511352539, -3.9989655017852783, -0.18957936763763428, -0.6191217303276062, -9.897648811340332, 0.9041440486907959, 
564, 2330418795, -86.34251403808594, -65.02408599853516, -157.39466857910156, 9.03382682800293, -3.979369878768921, -0.20796510577201843, -0.9016212821006775, -10.226510047912598, 0.9174891710281372, 
565, 2330427128, -86.54083251953125, -65.03008270263672, -157.18533325195312, 9.03901481628418, -3.994563102722168, -0.2004287987947464, -0.9541431665420532, -10.562275886535645, 0.929694414138794, 
566, 2330435461, -86.76521301269531, -65.04750061035156, -156.95208740234375, 9.057372093200684, -3.9887707233428955, -0.21774984896183014, -1.1323286294937134, -11.023675918579102, 0.8193482756614685, 
567, 2330443794, -86.97810363769531, -65.05329895019531, -156.72959899902344, 9.051094055175781, -4.001264572143555, -0.18392477929592133, -1.257812738418579, -11.213478088378906, 0.9058603644371033, 
568, 2330452127, -87.21631622314453, -65.06950378417969, -156.48208618164062, 9.051238059997559, -4.0127973556518555, -0.1954646110534668, -1.3138951063156128, -11.66156005859375, 0.9075892567634583, 
569, 2330460460, -87.44270324707031, -65.07574462890625, -156.24810791015625, 9.074567794799805, -4.009125709533691, -0.18383127450942993, -1.6316912174224854, -11.783536911010742, 0.7974993586540222, 
570, 2330468793, -87.69435119628906, -65.0915756225586, -155.98834228515625, 9.04726791381836, -4.010375022888184, -0.20439478754997253, -1.6714953184127808, -12.193643569946289, 0.8598698973655701, 
571, 2330477126, -87.93479919433594, -65.0968246459961, -155.74061584472656, 9.070467948913574, -4.011717796325684, -0.20600146055221558, -1.8191617727279663, -12.459802627563477, 0.8434256911277771, 
572, 2330485459, -88.19951629638672, -65.11193084716797, -155.4672088623047, 9.072792053222656, -4.00334358215332, -0.2228592336177826, -1.8818652629852295, -12.786717414855957, 0.8589734435081482, 
573, 2330493792, -88.4487533569336, -65.1166763305664, -155.21067810058594, 9.070609092712402, -4.003275394439697, -0.23702390491962433, -1.9016140699386597, -12.89099407196045, 0.8042358756065369, 
574, 2330502125, -88.72605895996094, -65.13146209716797, -154.92919921875, 9.080759048461914, -4.005090713500977, -0.23978345096111298, -2.1406970024108887, -13.327303886413574, 0.7790570259094238, 
575, 2330510458, -88.98953247070312, -65.13526153564453, -154.65887451171875, 9.092475891113281, -4.001296043395996, -0.19163760542869568, -2.1089353561401367, -13.570948600769043, 0.8160951733589172, 
576, 2330518791, -89.27368927001953, -65.14907836914062, -154.3732452392578, 9.060068130493164, -4.0252203941345215, -0.23074409365653992, -2.249814033508301, -13.618694305419922, 0.7613064050674438, 
577, 2330527124, -89.54557800292969, -65.15231323242188, -154.0956268310547, 9.07408332824707, -4.024253845214844, -0.22240565717220306, -2.3139777183532715, -13.926526069641113, 0.7582070827484131, 
578, 2330535457, -89.8411636352539, -65.16450500488281, -153.7998504638672, 9.096203804016113, -4.001981735229492, -0.21733713150024414, -2.5318775177001953, -14.088356018066406, 0.8063361048698425, 
579, 2330543790, -90.12040710449219, -65.16616821289062, -153.5155487060547, 9.07201099395752, -4.013047695159912, -0.24852034449577332, -2.4643075466156006, -14.25033950805664, 0.810613751411438, 
580, 2330552123, -90.42417907714844, -65.17732238769531, -153.2232666015625, 9.090460777282715, -4.02064847946167, -0.22852714359760284, -2.656721591949463, -14.456815719604492, 0.7648923397064209, 
581, 2330560456, -90.71100616455078, -65.17778015136719, -152.93275451660156, 9.096048355102539, -4.01783561706543, -0.23231230676174164, -2.6967828273773193, -14.554819107055664, 0.8091027140617371, 
582, 2330568789, -91.01927185058594, -65.1875, -152.6352081298828, 9.089138984680176, -4.012702941894531, -0.26140445470809937, -2.622962474822998, -14.70074462890625, 0.7724999785423279, 
583, 2330577122, -91.3106918334961, -65.18722534179688, -152.3394012451172, 9.09329605102539, -4.033621788024902, -0.24015551805496216, -2.6630356311798096, -14.814815521240234, 0.7407894730567932, 
584, 2330585455, -91.62391662597656, -65.19546508789062, -152.02760314941406, 9.085527420043945, -4.01141357421875, -0.22577223181724548, -2.7705259323120117, -14.893566131591797, 0.7763932943344116, 
585, 2330593788, -91.92119598388672, -65.19363403320312, -151.7270050048828, 9.072592735290527, -4.026388168334961, -0.23981532454490662, -2.8478167057037354, -15.051079750061035, 0.7662883400917053, 
586, 2330602121, -92.23512268066406, -65.20071411132812, -151.41331481933594, 9.096678733825684, -4.029595375061035, -0.25365668535232544, -2.820678472518921, -14.897586822509766, 0.7429410219192505, 
587, 2330610454, -92.53080749511719, -65.19717407226562, -151.11480712890625, 9.109468460083008, -4.023279190063477, -0.26392143964767456, -2.883587121963501, -14.949455261230469, 0.8168124556541443, 
588, 2330618787, -92.84603118896484, -65.20252990722656, -150.78732299804688, 9.097187042236328, -4.042064189910889, -0.2331984043121338, -2.863325834274292, -14.95168399810791, 0.778160572052002, 
589, 2330627120, -93.1393051147461, -65.19818878173828, -150.4910430908203, 9.08968734741211, -4.011205196380615, -0.2515575885772705, -2.833101749420166, -14.83598518371582, 0.7591548562049866, 
590, 2330635453, -93.45462799072266, -65.20162200927734, -150.17050170898438, 9.103404998779297, -4.0241265296936035, -0.24009329080581665, -2.83164119720459, -14.980218887329102, 0.8273399472236633, 
591, 2330643786, -93.74920654296875, -65.19529724121094, -149.87332153320312, 9.085882186889648, -4.033732891082764, -0.26411041617393494, -2.889888048171997, -14.890440940856934, 0.8406081199645996, 
592, 2330652119, -94.06146240234375, -65.19882202148438, -149.53701782226562, 9.102240562438965, -4.014909267425537, -0.21697089076042175, -2.7828714847564697, -14.83708667755127, 0.6580553650856018, 
593, 2330660452, -94.35502624511719, -65.19200897216797, -149.240234375, 9.091496467590332, -4.02435302734375, -0.24574321508407593, -2.812225818634033, -14.871922492980957, 0.7388683557510376, 
594, 2330668785, -94.66765594482422, -65.19426727294922, -148.92259216308594, 9.116570472717285, -4.0288567543029785, -0.2425912767648697, -2.831564426422119, -14.848536491394043, 0.6340804696083069, 
595, 2330677118, -94.95806884765625, -65.18607330322266, -148.6287841796875, 9.098138809204102, -4.0323166847229, -0.26537641882896423, -2.763559103012085, -14.735450744628906, 0.7612552642822266, 
596, 2330685451, -95.263671875, -65.18522644042969, -148.31982421875, 9.090571403503418, -4.0254106521606445, -0.24281272292137146, -2.7567708492279053, -14.536401748657227, 0.8570524454116821, 
597, 2330693784, -95.54988861083984, -65.17591094970703, -148.03045654296875, 9.09360122680664, -4.023860931396484, -0.2746742069721222, -2.7472681999206543, -14.525592803955078, 0.7710399627685547, 
598, 2330702117, -95.85100555419922, -65.1734848022461, -147.7283477783203, 9.10218334197998, -4.034061431884766, -0.27597299218177795, -2.7145583629608154, -14.343549728393555, 0.9029786586761475, 
599, 2330710450, -96.13115692138672, -65.16289520263672, -147.44529724121094, 9.09970760345459, -4.002126216888428, -0.28655508160591125, -2.7087180614471436, -14.227184295654297, 0.8078986406326294, 
600, 2330718783, -96.42710876464844, -65.16049194335938, -147.1475067138672, 9.101028442382812, -4.0214619636535645, -0.259051650762558, -2.6155593395233154, -14.125929832458496, 0.7660194039344788, 
601, 2330727116, -96.6999282836914, -65.1492919921875, -146.8704071044922, 9.082093238830566, -4.014064788818359, -0.2599763572216034, -2.4750657081604004, -13.939948081970215, 0.772320568561554, 
602, 2330735449, -96.99105834960938, -65.1451416015625, -146.57614135742188, 9.102389335632324, -4.011448383331299, -0.2583451271057129, -2.4927265644073486, -13.962117195129395, 0.8406977653503418, 
603, 2330743782, -97.25716400146484, -65.13248443603516, -146.3043670654297, 9.102245330810547, -4.007256031036377, -0.2869839072227478, -2.25547456741333, -13.69904613494873, 0.8412484526634216, 
604, 2330752115, -97.5368881225586, -65.12771606445312, -146.020751953125, 9.1004056930542, -4.0187153816223145, -0.27292323112487793, -2.247483015060425, -13.485371589660645, 0.8371502161026001, 
