sep=,
PacketCounter,SampleTimeFine,Euler_X,Euler_Y,Euler_Z,Acc_X,Acc_Y,Acc_Z,Gyr_X,Gyr_Y,Gyr_Z,
0, 1273920133, 92.17265319824219, -37.731414794921875, -52.65223693847656, 0, 0, 0, 0, 0, 0, 
1, 1273928466, 92.29951477050781, -37.74137878417969, -52.726131439208984, 6.033264636993408, 7.778659820556641, -0.2353164404630661, 9.796152114868164, -6.961180210113525, 1.4676573276519775, 
2, 1273936799, 92.34072875976562, -37.76212692260742, -52.766666412353516, 6.032986164093018, 7.769915580749512, -0.2305496633052826, 10.032136917114258, -7.215351104736328, 1.4959098100662231, 
3, 1273945132, 92.47417449951172, -37.77172088623047, -52.84346008300781, 6.041982650756836, 7.785012722015381, -0.21958889067173004, 10.369784355163574, -7.2322587966918945, 1.4571300745010376, 
4, 1273953465, 92.47665405273438, -37.79365539550781, -52.8817138671875, 6.043734073638916, 7.772856712341309, -0.1989961713552475, 10.414250373840332, -7.392550945281982, 1.5349204540252686, 
5, 1273961798, 92.61479187011719, -37.80354690551758, -52.96253204345703, 6.038020610809326, 7.804187774658203, -0.21439646184444427, 10.635377883911133, -7.604354381561279, 1.523829460144043, 
6, 1273970131, 92.60498809814453, -37.81843566894531, -52.97440719604492, 6.043456554412842, 7.810223579406738, -0.20777837932109833, 10.917338371276855, -7.6703877449035645, 1.514685034751892, 
7, 1273978464, 92.7471694946289, -37.827674865722656, -53.0567512512207, 6.050561428070068, 7.81969690322876, -0.2164190709590912, 11.00399112701416, -7.746334552764893, 1.4721910953521729, 
8, 1273986797, 92.7492446899414, -37.83404541015625, -53.0501594543457, 6.0361223220825195, 7.8243818283081055, -0.19170856475830078, 11.360237121582031, -7.887112140655518, 1.5630450248718262, 
9, 1273995130, 92.89771270751953, -37.84366226196289, -53.13624954223633, 6.039738655090332, 7.828495025634766, -0.19536077976226807, 11.481314659118652, -8.090744018554688, 1.5543873310089111, 
10, 1274003463, 92.90609741210938, -37.842769622802734, -53.14060592651367, 6.046896457672119, 7.821393966674805, -0.20835095643997192, 11.663942337036133, -8.105164527893066, 1.6220600605010986, 
11, 1274011796, 93.05811309814453, -37.85284423828125, -53.228363037109375, 6.032357215881348, 7.821948051452637, -0.20854245126247406, 11.782050132751465, -8.24138069152832, 1.6390678882598877, 
12, 1274020129, 93.08129119873047, -37.85029220581055, -53.24003601074219, 6.027267932891846, 7.850244998931885, -0.19877763092517853, 11.985118865966797, -8.366762161254883, 1.6143245697021484, 
13, 1274028462, 93.23871612548828, -37.85990524291992, -53.33109664916992, 6.03067684173584, 7.822911739349365, -0.21582354605197906, 12.186795234680176, -8.550725936889648, 1.6296805143356323, 
14, 1274036795, 93.27444458007812, -37.85365676879883, -53.35831832885742, 6.031038284301758, 7.822068214416504, -0.20431478321552277, 12.377839088439941, -8.698184967041016, 1.5593822002410889, 
15, 1274045128, 93.43589782714844, -37.862823486328125, -53.452247619628906, 6.013429164886475, 7.821774959564209, -0.18002189695835114, 12.45879077911377, -8.820621490478516, 1.6177953481674194, 
16, 1274053461, 93.47816467285156, -37.85617446899414, -53.4865837097168, 6.0404157638549805, 7.823270320892334, -0.21190094947814941, 12.51192855834961, -9.061293601989746, 1.557051181793213, 
17, 1274061794, 93.64338684082031, -37.864479064941406, -53.584693908691406, 6.026334762573242, 7.819237232208252, -0.19528912007808685, 12.605470657348633, -9.217284202575684, 1.5700887441635132, 
18, 1274070127, 93.69310760498047, -37.85874557495117, -53.63584518432617, 6.018815517425537, 7.828667163848877, -0.21412691473960876, 12.733132362365723, -9.257779121398926, 1.5348436832427979, 
19, 1274078460, 93.8607177734375, -37.867156982421875, -53.73542785644531, 6.012805938720703, 7.834691524505615, -0.17650307714939117, 12.780364990234375, -9.348301887512207, 1.6261327266693115, 
20, 1274086793, 93.91590881347656, -37.86117172241211, -53.782535552978516, 6.01395320892334, 7.845820903778076, -0.15217581391334534, 12.989813804626465, -9.431906700134277, 1.5839461088180542, 
21, 1274095126, 94.08531188964844, -37.86839294433594, -53.88218307495117, 6.037132740020752, 7.841714382171631, -0.186830073595047, 12.991169929504395, -9.358009338378906, 1.523419737815857, 
22, 1274103459, 94.13932037353516, -37.86164474487305, -53.930816650390625, 6.030904769897461, 7.853048801422119, -0.1643693596124649, 12.911996841430664, -9.434365272521973, 1.4820526838302612, 
23, 1274111792, 94.3091049194336, -37.867591857910156, -54.032020568847656, 6.038969039916992, 7.838519096374512, -0.14847320318222046, 12.92426586151123, -9.511540412902832, 1.418017029762268, 
24, 1274120125, 94.36287689208984, -37.86129379272461, -54.07783889770508, 6.042491436004639, 7.842783451080322, -0.1645652949810028, 12.9943208694458, -9.422940254211426, 1.4427603483200073, 
25, 1274128458, 94.53372192382812, -37.86751937866211, -54.17873001098633, 6.051898002624512, 7.832945346832275, -0.1675441414117813, 13.07408332824707, -9.471684455871582, 1.4868937730789185, 
26, 1274136791, 94.58811950683594, -37.862525939941406, -54.230892181396484, 6.033635139465332, 7.812921524047852, -0.12288197129964828, 12.98681640625, -9.432085037231445, 1.4333856105804443, 
27, 1274145124, 94.75817108154297, -37.86845779418945, -54.331485748291016, 6.058437824249268, 7.816002368927002, -0.15987025201320648, 13.001364707946777, -9.440922737121582, 1.4875341653823853, 
28, 1274153457, 94.81208801269531, -37.86650466918945, -54.383583068847656, 6.049487590789795, 7.824939727783203, -0.12442344427108765, 12.995756149291992, -9.395943641662598, 1.5865588188171387, 
29, 1274161790, 94.9807357788086, -37.872581481933594, -54.484310150146484, 6.069892406463623, 7.823880672454834, -0.13526499271392822, 12.823038101196289, -9.446069717407227, 1.5439109802246094, 
30, 1274170123, 95.03339385986328, -37.87181091308594, -54.53727722167969, 6.062041282653809, 7.836389541625977, -0.16803666949272156, 12.851778984069824, -9.460798263549805, 1.5618410110473633, 
31, 1274178456, 95.2021713256836, -37.87766647338867, -54.63762664794922, 6.062650680541992, 7.854816913604736, -0.13161170482635498, 12.86701774597168, -9.40590763092041, 1.5484960079193115, 
32, 1274186789, 95.25361633300781, -37.877254486083984, -54.69091796875, 6.071653366088867, 7.826172828674316, -0.14578872919082642, 12.740997314453125, -9.293615341186523, 1.515069603919983, 
33, 1274195122, 95.41956329345703, -37.88379669189453, -54.78868865966797, 6.07100248336792, 7.824695587158203, -0.1369781494140625, 12.720467567443848, -9.147139549255371, 1.6438449621200562, 
34, 1274203455, 95.46871948242188, -37.88479995727539, -54.832672119140625, 6.0592546463012695, 7.857496738433838, -0.13899843394756317, 12.559650421142578, -9.07499885559082, 1.5337679386138916, 
35, 1274211788, 95.63187408447266, -37.890960693359375, -54.929283142089844, 6.060263633728027, 7.885406017303467, -0.10458016395568848, 12.4706392288208, -9.039264678955078, 1.6217271089553833, 
36, 1274220121, 95.67810821533203, -37.89242172241211, -54.97675323486328, 6.06234884262085, 7.901332855224609, -0.08569323271512985, 12.31364917755127, -8.937934875488281, 1.6008515357971191, 
37, 1274228454, 95.83634185791016, -37.89764404296875, -55.0697135925293, 6.061007499694824, 7.877270221710205, -0.08908994495868683, 12.14889907836914, -8.699723243713379, 1.5080513954162598, 
38, 1274236787, 95.87689971923828, -37.89762878417969, -55.108917236328125, 6.055635452270508, 7.8771562576293945, -0.06798801571130753, 12.016562461853027, -8.57791519165039, 1.4218721389770508, 
39, 1274245120, 96.03028106689453, -37.90189743041992, -55.19791030883789, 6.020954608917236, 7.860459327697754, -0.0769168883562088, 11.863119125366211, -8.332720756530762, 1.3857173919677734, 
40, 1274253453, 96.06648254394531, -37.901519775390625, -55.23295593261719, 6.042778968811035, 7.8310627937316895, -0.054221443831920624, 11.841012954711914, -8.226729393005371, 1.3774696588516235, 
41, 1274261786, 96.21484375, -37.90618896484375, -55.317020416259766, 6.02911901473999, 7.850816249847412, -0.0883018746972084, 11.624460220336914, -7.858769416809082, 1.4102946519851685, 
42, 1274270119, 96.24312591552734, -37.906455993652344, -55.34897994995117, 6.037193298339844, 7.826366424560547, -0.05174864083528519, 11.423604965209961, -7.565754413604736, 1.374882698059082, 
43, 1274278452, 96.3867416381836, -37.91127014160156, -55.42918395996094, 6.036891937255859, 7.833834171295166, -0.009217883460223675, 11.340306282043457, -7.488680839538574, 1.4119975566864014, 
44, 1274286785, 96.4090347290039, -37.91252517700195, -55.45359802246094, 6.030917644500732, 7.815319061279297, -0.05961073189973831, 11.09492301940918, -7.14457893371582, 1.4149178266525269, 
45, 1274295118, 96.54547882080078, -37.917110443115234, -55.528770446777344, 6.030869483947754, 7.802524089813232, -0.04050510376691818, 10.854557991027832, -7.015022277832031, 1.351035714149475, 
46, 1274303451, 96.56151580810547, -37.91898727416992, -55.55061340332031, 6.0238189697265625, 7.8392839431762695, -0.08711263537406921, 10.598827362060547, -6.771790981292725, 1.4092059135437012, 
47, 1274311784, 96.69247436523438, -37.92424392700195, -55.62104034423828, 6.015846252441406, 7.849074840545654, -0.08351965248584747, 10.547674179077148, -6.5572967529296875, 1.3981916904449463, 
48, 1274320117, 96.70563507080078, -37.92545700073242, -55.64149475097656, 6.012833595275879, 7.842813968658447, -0.05434056743979454, 10.382025718688965, -6.438906192779541, 1.3144584894180298, 
49, 1274328450, 96.82964324951172, -37.92983627319336, -55.70857620239258, 6.018772125244141, 7.840190887451172, -0.08637996762990952, 9.965219497680664, -6.251576900482178, 1.2717467546463013, 
50, 1274336783, 96.83700561523438, -37.930538177490234, -55.719051361083984, 6.02778959274292, 7.839359760284424, -0.0980338305234909, 9.830718040466309, -6.116513252258301, 1.2354514598846436, 
51, 1274345116, 96.95552825927734, -37.93525314331055, -55.783424377441406, 6.036685466766357, 7.8364973068237305, -0.11114749312400818, 9.505494117736816, -5.9905171394348145, 1.2961573600769043, 
52, 1274353449, 96.95771789550781, -37.93618392944336, -55.799827575683594, 6.025371551513672, 7.827479362487793, -0.09382392466068268, 9.230270385742188, -5.841352939605713, 1.2260510921478271, 
53, 1274361782, 97.07010650634766, -37.93975067138672, -55.861236572265625, 6.05900239944458, 7.810685634613037, -0.11551842838525772, 8.993568420410156, -5.726280689239502, 1.1365805864334106, 
54, 1274370115, 97.0671615600586, -37.94107437133789, -55.872955322265625, 6.043520450592041, 7.823551177978516, -0.08292747288942337, 8.641039848327637, -5.553384304046631, 1.205918312072754, 
55, 1274378448, 97.172607421875, -37.94511795043945, -55.93172836303711, 6.049068927764893, 7.800633907318115, -0.05685070529580116, 8.358360290527344, -5.4713029861450195, 1.1739004850387573, 
56, 1274386781, 97.16326141357422, -37.9476432800293, -55.93807601928711, 6.0610761642456055, 7.824091911315918, -0.08123701065778732, 7.939786911010742, -5.281425476074219, 1.2759604454040527, 
57, 1274395114, 97.26141357421875, -37.952884674072266, -55.99373245239258, 6.062929153442383, 7.802685737609863, -0.05802381783723831, 7.716353416442871, -5.159604072570801, 1.2892286777496338, 
58, 1274403447, 97.24524688720703, -37.955841064453125, -55.99806213378906, 6.078333854675293, 7.811082363128662, -0.030375508591532707, 7.320765972137451, -4.840014457702637, 1.2279078960418701, 
59, 1274411780, 97.33405303955078, -37.960914611816406, -56.048866271972656, 6.069407939910889, 7.796711444854736, -0.029579050838947296, 6.956878185272217, -4.706936359405518, 1.2160872220993042, 
60, 1274420113, 97.31100463867188, -37.965824127197266, -56.05421447753906, 6.061211585998535, 7.818149566650391, -0.0024066658224910498, 6.679783821105957, -4.456480503082275, 1.3560947179794312, 
61, 1274428446, 97.38990020751953, -37.97249984741211, -56.09828567504883, 6.079290390014648, 7.831259250640869, -0.01604926958680153, 6.271274566650391, -4.047689914703369, 1.331543207168579, 
62, 1274436779, 97.35706329345703, -37.978370666503906, -56.09141540527344, 6.063540458679199, 7.8084492683410645, -0.00627238629385829, 5.9405436515808105, -3.7881667613983154, 1.35136878490448, 
63, 1274445112, 97.42658233642578, -37.985836029052734, -56.12993621826172, 6.032662391662598, 7.799520969390869, -0.005421124864369631, 5.560222625732422, -3.517346143722534, 1.3593089580535889, 
64, 1274453445, 97.38263702392578, -37.99209976196289, -56.11937713623047, 6.046360492706299, 7.80255651473999, -0.02527605928480625, 5.0414323806762695, -3.1085948944091797, 1.2861037254333496, 
65, 1274461778, 97.44222259521484, -37.99993133544922, -56.15177536010742, 6.050740718841553, 7.804778099060059, -0.019047722220420837, 4.821278095245361, -2.935109853744507, 1.3359489440917969, 
66, 1274470111, 97.39099884033203, -38.00758361816406, -56.13688659667969, 6.030882358551025, 7.813697338104248, -0.020618624985218048, 4.452381610870361, -2.557863235473633, 1.365482211112976, 
67, 1274478444, 97.44039154052734, -38.0164794921875, -56.161834716796875, 6.037132740020752, 7.812220096588135, -0.012950996868312359, 4.154513835906982, -2.2252368927001953, 1.370092749595642, 
68, 1274486777, 97.38145446777344, -38.024471282958984, -56.139617919921875, 6.018470287322998, 7.80119514465332, -0.0430828258395195, 3.82161808013916, -2.0009970664978027, 1.3392914533615112, 
69, 1274495110, 97.42121124267578, -38.03346252441406, -56.15846252441406, 6.021934509277344, 7.819055557250977, -0.026824437081813812, 3.453387975692749, -1.6533348560333252, 1.3062490224838257, 
70, 1274503443, 97.35331726074219, -38.041812896728516, -56.130653381347656, 6.025770664215088, 7.814369201660156, 0.0020369584672152996, 3.1161253452301025, -1.31210196018219, 1.3084518909454346, 
71, 1274511776, 97.38433837890625, -38.05156326293945, -56.14458084106445, 6.012164115905762, 7.830368518829346, -0.014630474150180817, 2.776531934738159, -1.1845686435699463, 1.337447166442871, 
72, 1274520109, 97.3088150024414, -38.05912399291992, -56.113433837890625, 6.021101951599121, 7.829892635345459, -0.013017351739108562, 2.4047794342041016, -0.8831275701522827, 1.1804702281951904, 
73, 1274528442, 97.33057403564453, -38.069427490234375, -56.12055587768555, 6.02633810043335, 7.8252339363098145, -0.014562487602233887, 2.1730988025665283, -0.5383087992668152, 1.3179421424865723, 
74, 1274536775, 97.24835205078125, -38.07794952392578, -56.08022689819336, 6.045180797576904, 7.829221248626709, -0.03432823717594147, 1.8928791284561157, -0.29051661491394043, 1.2425591945648193, 
75, 1274545108, 97.26123046875, -38.088497161865234, -56.081546783447266, 6.020371437072754, 7.811058044433594, -0.041897017508745193, 1.5451658964157104, 0.0037268707528710365, 1.280493974685669, 
76, 1274553441, 97.17103576660156, -38.09845733642578, -56.03867721557617, 6.027922630310059, 7.815483093261719, -0.040752846747636795, 1.2058156728744507, 0.31828248500823975, 1.3580154180526733, 
77, 1274561774, 97.1746597290039, -38.109554290771484, -56.033966064453125, 6.037292957305908, 7.824866771697998, -0.020564423874020576, 0.8891084790229797, 0.5707747936248779, 1.2721437215805054, 
78, 1274570107, 97.0780029296875, -38.11958694458008, -55.98493194580078, 6.034703254699707, 7.815246105194092, -0.04751633480191231, 0.5758720636367798, 0.7365245223045349, 1.3357182741165161, 
79, 1274578440, 97.07272338867188, -38.131046295166016, -55.97431945800781, 6.022078990936279, 7.848543643951416, -0.04412607103586197, 0.26376256346702576, 1.125476598739624, 1.2501153945922852, 
80, 1274586773, 96.96831512451172, -38.14085388183594, -55.91887283325195, 6.052257061004639, 7.836724758148193, -0.06998264044523239, -0.08047991991043091, 1.3364354372024536, 1.2662523984909058, 
81, 1274595106, 96.95541381835938, -38.15192794799805, -55.903480529785156, 6.0438618659973145, 7.862951755523682, -0.05790770426392555, -0.2866488993167877, 1.5601502656936646, 1.1513469219207764, 
82, 1274603439, 96.8440933227539, -38.16072463989258, -55.84433364868164, 6.020098686218262, 7.863785743713379, -0.0931912213563919, -0.6980006694793701, 1.8638197183609009, 1.108865737915039, 
83, 1274611772, 96.82183837890625, -38.17192459106445, -55.82339859008789, 6.020434856414795, 7.864414691925049, -0.07797124236822128, -0.9901567697525024, 2.075188636779785, 1.1097111701965332, 
84, 1274620105, 96.70394897460938, -38.1805305480957, -55.75822830200195, 6.035308361053467, 7.8530755043029785, -0.0645916610956192, -1.2892541885375977, 2.4012064933776855, 1.0730828046798706, 
85, 1274628438, 96.67363739013672, -38.19236755371094, -55.73304748535156, 6.039297580718994, 7.861604690551758, -0.07531885802745819, -1.6341369152069092, 2.4758079051971436, 1.144431233406067, 
86, 1274636771, 96.55044555664062, -38.201385498046875, -55.66225814819336, 6.036985874176025, 7.810209274291992, -0.07841596752405167, -1.8918672800064087, 2.728748321533203, 1.1300615072250366, 
87, 1274645104, 96.51188659667969, -38.21220397949219, -55.63203430175781, 6.025234222412109, 7.792043685913086, -0.09591393172740936, -2.242487668991089, 2.9270923137664795, 0.9760047793388367, 
88, 1274653437, 96.38404846191406, -38.220176696777344, -55.56084442138672, 6.029197692871094, 7.787257194519043, -0.125789076089859, -2.492457151412964, 2.954089403152466, 1.0052307844161987, 
89, 1274661770, 96.340576171875, -38.2318000793457, -55.529945373535156, 6.054178237915039, 7.769061088562012, -0.14069709181785583, -2.7737019062042236, 2.9935104846954346, 1.0743122100830078, 
90, 1274670103, 96.20880126953125, -38.240379333496094, -55.45701599121094, 6.031404495239258, 7.7743730545043945, -0.11466604471206665, -2.9982106685638428, 3.253084659576416, 1.064886212348938, 
91, 1274678436, 96.15776062011719, -38.25358963012695, -55.420772552490234, 6.044281959533691, 7.776849269866943, -0.12658211588859558, -3.275740623474121, 3.505974292755127, 1.222055196762085, 
92, 1274686769, 96.02149200439453, -38.263309478759766, -55.34778594970703, 6.0463175773620605, 7.783660411834717, -0.11450684815645218, -3.5456502437591553, 3.5658984184265137, 1.1892049312591553, 
93, 1274695102, 95.96524810791016, -38.2766227722168, -55.30954360961914, 6.025398254394531, 7.8253021240234375, -0.1253117024898529, -3.741753101348877, 3.68815541267395, 1.2274214029312134, 
94, 1274703435, 95.82616424560547, -38.28593063354492, -55.235870361328125, 6.039371967315674, 7.851890563964844, -0.13222931325435638, -3.968502998352051, 3.7637813091278076, 1.1575584411621094, 
95, 1274711768, 95.76419830322266, -38.298038482666016, -55.1943359375, 6.037015914916992, 7.869915008544922, -0.10418076068162918, -4.171572685241699, 3.9726903438568115, 1.0663717985153198, 
96, 1274720101, 95.62065887451172, -38.30692672729492, -55.11311721801758, 6.051235198974609, 7.874145984649658, -0.09696607291698456, -4.425653457641602, 4.1521830558776855, 1.1182535886764526, 
97, 1274728434, 95.55216979980469, -38.31894302368164, -55.06941604614258, 6.061347961425781, 7.869906902313232, -0.11821351945400238, -4.785916805267334, 4.163607120513916, 1.0498889684677124, 
98, 1274736767, 95.4033432006836, -38.32694625854492, -54.98572540283203, 6.055328845977783, 7.873812675476074, -0.08286288380622864, -4.968264579772949, 4.545207500457764, 1.0260164737701416, 
99, 1274745100, 95.32891845703125, -38.33892822265625, -54.93584442138672, 6.074805736541748, 7.843037128448486, -0.09113529324531555, -5.027484893798828, 4.735342025756836, 1.008137822151184, 
100, 1274753433, 95.17713165283203, -38.346309661865234, -54.847232818603516, 6.082088947296143, 7.831453323364258, -0.09545767307281494, -5.243938446044922, 4.90581750869751, 0.96063631772995, 
101, 1274761766, 95.09681701660156, -38.35856246948242, -54.79277038574219, 6.070847511291504, 7.8091721534729, -0.09831521660089493, -5.383484840393066, 5.158451080322266, 1.022776484489441, 
102, 1274770099, 94.94082641601562, -38.36614227294922, -54.701446533203125, 6.072354316711426, 7.797147750854492, -0.10651670396327972, -5.506280422210693, 5.495227813720703, 0.9700368046760559, 
103, 1274778432, 94.85482788085938, -38.3780632019043, -54.642642974853516, 6.091190338134766, 7.809199333190918, -0.11096019297838211, -5.732017993927002, 5.553422927856445, 0.971240758895874, 
104, 1274786765, 94.69709777832031, -38.38627624511719, -54.547828674316406, 6.057713031768799, 7.814516544342041, -0.09933963418006897, -5.670351505279541, 5.834115982055664, 1.0485316514968872, 
105, 1274795098, 94.60761260986328, -38.39845275878906, -54.48442459106445, 6.05763578414917, 7.831189155578613, -0.11536787450313568, -5.796821117401123, 5.975416660308838, 0.9929614067077637, 
106, 1274803431, 94.44876861572266, -38.407562255859375, -54.388099670410156, 6.056901931762695, 7.82174825668335, -0.13350050151348114, -5.876532554626465, 6.03709602355957, 1.1928037405014038, 
107, 1274811764, 94.35662841796875, -38.419189453125, -54.32265853881836, 6.041793346405029, 7.86799430847168, -0.1693955957889557, -5.951941967010498, 6.151592254638672, 0.9399400353431702, 
108, 1274820097, 94.19835662841797, -38.425743103027344, -54.223793029785156, 6.036002159118652, 7.874386787414551, -0.12425393611192703, -5.883961200714111, 6.214218616485596, 0.9298478960990906, 
109, 1274828430, 94.10408782958984, -38.43716812133789, -54.15562057495117, 6.037631511688232, 7.8979597091674805, -0.1454792618751526, -5.996728420257568, 6.395708084106445, 0.9244561791419983, 
110, 1274836763, 93.94493865966797, -38.44375991821289, -54.056827545166016, 6.032341480255127, 7.889311790466309, -0.17794860899448395, -6.018436431884766, 6.4677228927612305, 0.9857382774353027, 
111, 1274845096, 93.8499755859375, -38.45375442504883, -53.98741912841797, 6.0183868408203125, 7.901776313781738, -0.14725270867347717, -5.974828243255615, 6.489879131317139, 0.7781861424446106, 
112, 1274853429, 93.69278717041016, -38.45779037475586, -53.88650894165039, 6.041476249694824, 7.866753101348877, -0.18247246742248535, -6.041796684265137, 6.418671607971191, 0.7523926496505737, 
113, 1274861762, 93.59801483154297, -38.467384338378906, -53.817108154296875, 6.04350471496582, 7.845470905303955, -0.17540426552295685, -5.943718910217285, 6.4769182205200195, 0.761664867401123, 
114, 1274870095, 93.44295501708984, -38.471736907958984, -53.71664810180664, 6.047026634216309, 7.825241565704346, -0.17601191997528076, -5.985266208648682, 6.478122234344482, 0.8498803973197937, 
115, 1274878428, 93.34685516357422, -38.48147201538086, -53.645904541015625, 6.067836761474609, 7.825295448303223, -0.17211128771305084, -5.994947910308838, 6.592258930206299, 0.7989592552185059, 
116, 1274886761, 93.19397735595703, -38.48590850830078, -53.54751205444336, 6.070311069488525, 7.806689739227295, -0.19464612007141113, -5.995255470275879, 6.427995204925537, 0.9083832502365112, 
117, 1274895094, 93.09969329833984, -38.49617004394531, -53.479217529296875, 6.0459370613098145, 7.801894187927246, -0.21348348259925842, -5.948277950286865, 6.359834671020508, 0.9053094387054443, 
118, 1274903427, 92.9503173828125, -38.49983596801758, -53.38591384887695, 6.053224086761475, 7.809278964996338, -0.19338572025299072, -5.876917839050293, 6.348949909210205, 0.8678871989250183, 
119, 1274911760, 92.8564682006836, -38.5097770690918, -53.31785583496094, 6.029425144195557, 7.80901575088501, -0.20377042889595032, -5.902416706085205, 6.329123497009277, 0.8973946571350098, 
120, 1274920093, 92.71092987060547, -38.51353073120117, -53.22623062133789, 6.046459674835205, 7.843678951263428, -0.22474300861358643, -5.811601161956787, 6.1486968994140625, 0.9293612241744995, 
121, 1274928426, 92.61951446533203, -38.52245330810547, -53.16021728515625, 6.039843559265137, 7.833700180053711, -0.21695581078529358, -5.755530834197998, 6.123108386993408, 0.8126115798950195, 
122, 1274936759, 92.4771728515625, -38.525142669677734, -53.0655517578125, 6.034324645996094, 7.848889350891113, -0.2377409040927887, -5.742058277130127, 6.050722122192383, 0.8532357215881348, 
123, 1274945092, 92.38677215576172, -38.53396224975586, -53.00175476074219, 6.036923885345459, 7.826552867889404, -0.22219102084636688, -5.79497766494751, 5.901135444641113, 0.836355984210968, 
124, 1274953425, 92.24728393554688, -38.53620910644531, -52.913902282714844, 6.032100677490234, 7.827043533325195, -0.22126036882400513, -5.703380584716797, 5.958024024963379, 0.8531844615936279, 
125, 1274961758, 92.15846252441406, -38.54465103149414, -52.850582122802734, 6.047408580780029, 7.816508769989014, -0.2148018479347229, -5.628177165985107, 5.850470542907715, 0.8182467222213745, 
126, 1274970091, 92.0245590209961, -38.54671859741211, -52.76585006713867, 6.049780368804932, 7.814833641052246, -0.21642957627773285, -5.559110164642334, 5.583250999450684, 0.8885452151298523, 
127, 1274978424, 91.93827056884766, -38.555419921875, -52.70527648925781, 6.051983833312988, 7.804018497467041, -0.21726860105991364, -5.522916316986084, 5.584096431732178, 0.8828075528144836, 
128, 1274986757, 91.80821228027344, -38.557861328125, -52.62415313720703, 6.085386276245117, 7.783632755279541, -0.2131815254688263, -5.493972301483154, 5.365683555603027, 0.971535325050354, 
129, 1274995090, 91.7249755859375, -38.566505432128906, -52.56657028198242, 6.061354637145996, 7.784504413604736, -0.2365678995847702, -5.369717597961426, 5.295833110809326, 0.9093438386917114, 
130, 1275003423, 91.59969329833984, -38.568748474121094, -52.48872756958008, 6.049395561218262, 7.795528411865234, -0.19850346446037292, -5.270846366882324, 5.198729515075684, 0.9768372178077698, 
131, 1275011756, 91.51997375488281, -38.5778923034668, -52.433448791503906, 6.056981086730957, 7.798094272613525, -0.2146328091621399, -5.1126909255981445, 5.075998783111572, 0.9964705109596252, 
132, 1275020089, 91.40021514892578, -38.58070755004883, -52.358619689941406, 6.05778169631958, 7.7893242835998535, -0.21281729638576508, -5.000654697418213, 4.967701435089111, 1.0788459777832031, 
133, 1275028422, 91.32563781738281, -38.58991241455078, -52.307212829589844, 6.057610988616943, 7.796172142028809, -0.1999521702528, -4.776747703552246, 4.705284595489502, 1.032023310661316, 
134, 1275036755, 91.21260070800781, -38.59265899658203, -52.23399353027344, 6.027246952056885, 7.8054986000061035, -0.2118837535381317, -4.578006267547607, 4.736302375793457, 1.0974674224853516, 
135, 1275045088, 91.14096069335938, -38.60279083251953, -52.182716369628906, 6.0477447509765625, 7.838531017303467, -0.2572341561317444, -4.429623126983643, 4.684164524078369, 1.160568118095398, 
136, 1275053421, 91.03380584716797, -38.60486602783203, -52.11348342895508, 6.036996364593506, 7.842848300933838, -0.2336878627538681, -4.278423309326172, 4.482760906219482, 1.052066445350647, 
137, 1275061754, 90.96842193603516, -38.61399841308594, -52.066314697265625, 6.012773513793945, 7.834210395812988, -0.21637289226055145, -3.977199077606201, 4.287015914916992, 1.0619021654129028, 
138, 1275070087, 90.87061309814453, -38.61568069458008, -52.00305938720703, 6.0085039138793945, 7.836630821228027, -0.21522589027881622, -3.696608066558838, 4.056244373321533, 1.0472122430801392, 
139, 1275078420, 90.81210327148438, -38.62355422973633, -51.95964431762695, 6.009163856506348, 7.779214859008789, -0.22953125834465027, -3.424687147140503, 3.9285576343536377, 0.9337669014930725, 
140, 1275086753, 90.72156524658203, -38.62507629394531, -51.90043258666992, 6.014404773712158, 7.808287143707275, -0.23908759653568268, -3.292569160461426, 3.7031266689300537, 1.0561517477035522, 
141, 1275095086, 90.66963195800781, -38.633296966552734, -51.861328125, 6.0154571533203125, 7.815866947174072, -0.24428170919418335, -2.9516053199768066, 3.518793821334839, 0.989490807056427, 
142, 1275103419, 90.5870132446289, -38.634422302246094, -51.80400848388672, 6.0234270095825195, 7.789270401000977, -0.23614148795604706, -2.7484333515167236, 3.4355735778808594, 1.034879207611084, 
143, 1275111752, 90.5419921875, -38.642906188964844, -51.76844787597656, 5.99489164352417, 7.784916400909424, -0.24035590887069702, -2.384326934814453, 3.1812241077423096, 1.0377222299575806, 
144, 1275120085, 90.46875762939453, -38.643821716308594, -51.71731948852539, 6.022539138793945, 7.803628444671631, -0.23339375853538513, -2.1055796146392822, 3.0572893619537354, 1.0308704376220703, 
145, 1275128418, 90.42992401123047, -38.651763916015625, -51.68387985229492, 6.001101493835449, 7.765851974487305, -0.26803579926490784, -1.792497158050537, 2.975708246231079, 0.9825621843338013, 
146, 1275136751, 90.36665344238281, -38.652381896972656, -51.64034652709961, 6.010923862457275, 7.794571399688721, -0.2563781440258026, -1.4559515714645386, 2.596463680267334, 1.0166290998458862, 
147, 1275145084, 90.33563232421875, -38.66109848022461, -51.611846923828125, 6.00926399230957, 7.812267303466797, -0.24998214840888977, -1.2213507890701294, 2.5103230476379395, 1.0879902839660645, 
148, 1275153417, 90.28101348876953, -38.6624870300293, -51.571807861328125, 6.013115406036377, 7.799322128295898, -0.2631995975971222, -0.9268127083778381, 2.1792335510253906, 1.1244393587112427, 
149, 1275161750, 90.258056640625, -38.671024322509766, -51.5482292175293, 6.009678363800049, 7.810065746307373, -0.25170475244522095, -0.6145495772361755, 2.0433757305145264, 1.0732877254486084, 
150, 1275170083, 90.2120590209961, -38.671783447265625, -51.51223373413086, 6.008748531341553, 7.807938098907471, -0.2655836343765259, -0.3654126822948456, 1.8065334558486938, 1.0661283731460571, 
151, 1275178416, 90.19779968261719, -38.6800651550293, -51.493770599365234, 6.029749870300293, 7.796351432800293, -0.27470332384109497, 0.04914090782403946, 1.5603551864624023, 1.0485059022903442, 
152, 1275186749, 90.16252136230469, -38.68112564086914, -51.464683532714844, 6.024393558502197, 7.806616306304932, -0.27061042189598083, 0.29809847474098206, 1.2325568199157715, 1.1151667833328247, 
153, 1275195082, 90.15740966796875, -38.68954849243164, -51.45233917236328, 6.027407646179199, 7.794775009155273, -0.28089213371276855, 0.6924296021461487, 0.9807946681976318, 1.0718789100646973, 
154, 1275203415, 90.1325454711914, -38.68986511230469, -51.43211364746094, 6.020755290985107, 7.779045581817627, -0.285033643245697, 0.8414532542228699, 0.5524478554725647, 1.037043571472168, 
155, 1275211748, 90.13628387451172, -38.69863510131836, -51.42650604248047, 6.027845859527588, 7.775142669677734, -0.3123006224632263, 1.2547900676727295, 0.3473290205001831, 1.1182407140731812, 
156, 1275220081, 90.1212158203125, -38.69968032836914, -51.40980529785156, 6.020182132720947, 7.758173942565918, -0.2847348749637604, 1.4405444860458374, 0.03147989138960838, 1.126513957977295, 
157, 1275228414, 90.13285827636719, -38.70854187011719, -51.41020584106445, 6.018795013427734, 7.7322096824646, -0.27899977564811707, 1.7551641464233398, -0.2191425859928131, 1.1321747303009033, 
158, 1275236747, 90.12686157226562, -38.710533142089844, -51.40480422973633, 6.021278381347656, 7.751320838928223, -0.2568119466304779, 2.0248563289642334, -0.41258126497268677, 1.2513065338134766, 
159, 1275245080, 90.14606475830078, -38.720245361328125, -51.41034698486328, 6.043182849884033, 7.755895137786865, -0.24946743249893188, 2.2860829830169678, -0.6992685794830322, 1.2361301183700562, 
160, 1275253413, 90.14932250976562, -38.72247314453125, -51.409278869628906, 6.022915363311768, 7.755143642425537, -0.25301188230514526, 2.6353204250335693, -0.8688476085662842, 1.2777917385101318, 
161, 1275261746, 90.17593383789062, -38.73247146606445, -51.41981506347656, 6.006937026977539, 7.7579145431518555, -0.2857760787010193, 2.8030169010162354, -1.1668051481246948, 1.2761011123657227, 
162, 1275270079, 90.1881332397461, -38.73416519165039, -51.42033004760742, 6.019343376159668, 7.779782295227051, -0.24773754179477692, 3.1645233631134033, -1.38642156124115, 1.211079478263855, 
163, 1275278412, 90.22372436523438, -38.74394989013672, -51.43667221069336, 6.0159430503845215, 7.7953386306762695, -0.2506988048553467, 3.4456653594970703, -1.7156926393508911, 1.256365418434143, 
164, 1275286745, 90.2446517944336, -38.746028900146484, -51.44614791870117, 6.014398097991943, 7.761394500732422, -0.25343814492225647, 3.684441328048706, -1.894300937652588, 1.2755249738693237, 
165, 1275295078, 90.28700256347656, -38.75555419921875, -51.46674346923828, 6.012759208679199, 7.787013530731201, -0.26917126774787903, 3.9412624835968018, -2.1116890907287598, 1.2302261590957642, 
166, 1275303411, 90.3165283203125, -38.758323669433594, -51.481719970703125, 6.019869327545166, 7.777883529663086, -0.2564722001552582, 4.184866905212402, -2.4156529903411865, 1.3672493696212769, 
167, 1275311744, 90.36756134033203, -38.769046783447266, -51.507930755615234, 6.024975299835205, 7.772838115692139, -0.26182571053504944, 4.565647602081299, -2.6361401081085205, 1.3824130296707153, 
168, 1275320077, 90.40670013427734, -38.77214431762695, -51.52838134765625, 6.01275110244751, 7.787456035614014, -0.2576369345188141, 4.814324378967285, -2.9325101375579834, 1.4191056489944458, 
169, 1275328410, 90.4659423828125, -38.78183364868164, -51.56011962890625, 6.007160663604736, 7.768184185028076, -0.23875471949577332, 5.136576175689697, -3.153432607650757, 1.2711832523345947, 
170, 1275336743, 90.51506042480469, -38.78470993041992, -51.584468841552734, 6.0226850509643555, 7.7704057693481445, -0.2667430639266968, 5.463234901428223, -3.49825119972229, 1.4036856889724731, 
171, 1275345076, 90.58421325683594, -38.79581832885742, -51.62240219116211, 6.030745029449463, 7.774548530578613, -0.24934524297714233, 5.8592305183410645, -3.7324423789978027, 1.4568864107131958, 
172, 1275353409, 90.64322662353516, -38.798797607421875, -51.65428161621094, 6.004472255706787, 7.7857818603515625, -0.22641240060329437, 6.1934967041015625, -3.95369815826416, 1.4384443759918213, 
173, 1275361742, 90.71997833251953, -38.80949020385742, -51.696990966796875, 6.005211353302002, 7.784369468688965, -0.2592320144176483, 6.41776180267334, -4.176426887512207, 1.4203989505767822, 
174, 1275370075, 90.78766632080078, -38.812278747558594, -51.734344482421875, 6.007237911224365, 7.7807230949401855, -0.25180938839912415, 6.778781414031982, -4.414612770080566, 1.4432340860366821, 
175, 1275378408, 90.87388610839844, -38.82246017456055, -51.782554626464844, 5.996827602386475, 7.810699939727783, -0.2656305432319641, 7.142427444458008, -4.6910552978515625, 1.377303123474121, 
176, 1275386741, 90.95034790039062, -38.82470703125, -51.82593536376953, 6.007712364196777, 7.8032941818237305, -0.21360470354557037, 7.438323020935059, -4.809712886810303, 1.4079376459121704, 
177, 1275395074, 91.0448226928711, -38.83518600463867, -51.87968826293945, 6.012092590332031, 7.803450107574463, -0.24912983179092407, 7.7181077003479, -5.2054667472839355, 1.4406217336654663, 
178, 1275403407, 91.12930297851562, -38.837554931640625, -51.92578125, 6.003757953643799, 7.806431293487549, -0.23507985472679138, 7.967103481292725, -5.265095233917236, 1.4531210660934448, 
179, 1275411740, 91.2311019897461, -38.848052978515625, -51.98344039916992, 6.013619899749756, 7.811995029449463, -0.22770413756370544, 8.305570602416992, -5.570700168609619, 1.4695144891738892, 
180, 1275420073, 91.32354736328125, -38.84973907470703, -52.03523254394531, 6.010097026824951, 7.815087795257568, -0.23322683572769165, 8.52587890625, -5.692085266113281, 1.411395788192749, 
181, 1275428406, 91.4327621459961, -38.85932922363281, -52.097251892089844, 6.022974967956543, 7.817604064941406, -0.24002796411514282, 8.865715980529785, -5.973010540008545, 1.3939398527145386, 
182, 1275436739, 91.53250122070312, -38.860294342041016, -52.1533317565918, 6.031918525695801, 7.806581974029541, -0.19577600061893463, 9.109678268432617, -6.000071048736572, 1.3655205965042114, 
183, 1275445072, 91.64750671386719, -38.869544982910156, -52.21846389770508, 6.038412570953369, 7.814305782318115, -0.22951695322990417, 9.330819129943848, -6.257789134979248, 1.3824901580810547, 
184, 1275453405, 91.753662109375, -38.87018966674805, -52.27839660644531, 6.014993190765381, 7.79326057434082, -0.2078510820865631, 9.575881958007812, -6.333619594573975, 1.3676464557647705, 
185, 1275461738, 91.87413024902344, -38.87931442260742, -52.34578323364258, 6.038537979125977, 7.7951154708862305, -0.18156233429908752, 9.816171646118164, -6.466122627258301, 1.4031480550765991, 
186, 1275470071, 91.98686981201172, -38.880706787109375, -52.40986633300781, 6.050713539123535, 7.802876949310303, -0.2127694934606552, 10.021184921264648, -6.729461193084717, 1.504733920097351, 
187, 1275478404, 92.11211395263672, -38.88957977294922, -52.48126983642578, 6.049623012542725, 7.79165506362915, -0.19796161353588104, 10.088319778442383, -6.836989402770996, 1.4166464805603027, 
188, 1275486737, 92.22992706298828, -38.890586853027344, -52.548500061035156, 6.053915023803711, 7.785251140594482, -0.18933817744255066, 10.418618202209473, -6.967162132263184, 1.5007126331329346, 
189, 1275495070, 92.36083221435547, -38.900291442871094, -52.62254333496094, 6.048511505126953, 7.789700984954834, -0.20402081310749054, 10.572968482971191, -7.07425594329834, 1.5550917387008667, 
190, 1275503403, 92.48248291015625, -38.900577545166016, -52.69235610961914, 6.040325164794922, 7.802870273590088, -0.2068563550710678, 10.66038990020752, -7.230310440063477, 1.4625217914581299, 
191, 1275511736, 92.61810302734375, -38.90968322753906, -52.77088928222656, 6.039133071899414, 7.806713104248047, -0.20925754308700562, 10.799371719360352, -7.490538597106934, 1.535061240196228, 
192, 1275520069, 92.74483489990234, -38.9102897644043, -52.844730377197266, 6.047115325927734, 7.7877583503723145, -0.23232705891132355, 10.941146850585938, -7.626729488372803, 1.561751365661621, 
193, 1275528402, 92.88525390625, -38.919212341308594, -52.92692565917969, 6.04833459854126, 7.795987606048584, -0.1935911774635315, 11.102466583251953, -7.828646659851074, 1.56513249874115, 
194, 1275536735, 93.01644134521484, -38.91927719116211, -53.006187438964844, 6.035965442657471, 7.826827049255371, -0.2233627438545227, 11.153337478637695, -8.037352561950684, 1.5572435855865479, 
195, 1275545068, 93.16058349609375, -38.92771530151367, -53.091270446777344, 6.043084144592285, 7.818413734436035, -0.2022705227136612, 11.33222770690918, -8.093371391296387, 1.5621869564056396, 
196, 1275553401, 93.29542541503906, -38.92694854736328, -53.171356201171875, 6.064968109130859, 7.809718132019043, -0.18041664361953735, 11.459375381469727, -8.21193790435791, 1.5194878578186035, 
197, 1275561734, 93.44200134277344, -38.93515396118164, -53.25881576538086, 6.034556865692139, 7.809422969818115, -0.1822352260351181, 11.448873519897461, -8.311680793762207, 1.589773416519165, 
198, 1275570067, 93.57884216308594, -38.93424606323242, -53.342708587646484, 6.053755283355713, 7.814366340637207, -0.1879434734582901, 11.54665470123291, -8.440428733825684, 1.5616871118545532, 
199, 1275578400, 93.72821807861328, -38.94245529174805, -53.43205261230469, 6.0424933433532715, 7.814815044403076, -0.17830431461334229, 11.643028259277344, -8.477326393127441, 1.6450231075286865, 
200, 1275586733, 93.8667221069336, -38.94112777709961, -53.51727294921875, 6.050747871398926, 7.833678722381592, -0.19469861686229706, 11.640825271606445, -8.61011028289795, 1.5743534564971924, 
201, 1275595066, 94.01836395263672, -38.94850540161133, -53.60884475708008, 6.058393955230713, 7.831141948699951, -0.1750834584236145, 11.749750137329102, -8.684814453125, 1.6053082942962646, 
202, 1275603399, 94.15806579589844, -38.94670104980469, -53.693565368652344, 6.049590587615967, 7.8530659675598145, -0.20199961960315704, 11.811595916748047, -8.624556541442871, 1.5704087018966675, 
203, 1275611732, 94.31106567382812, -38.953617095947266, -53.78532409667969, 6.032210350036621, 7.8728742599487305, -0.15990452468395233, 11.902400016784668, -8.70071029663086, 1.5987385511398315, 
204, 1275620065, 94.45240020751953, -38.95128631591797, -53.8712272644043, 6.048859596252441, 7.861117839813232, -0.14021170139312744, 11.890207290649414, -8.835389137268066, 1.5782983303070068, 
205, 1275628398, 94.60694885253906, -38.95775604248047, -53.96377944946289, 6.040401458740234, 7.832626819610596, -0.15766111016273499, 12.029651641845703, -8.771610260009766, 1.599455714225769, 
206, 1275636731, 94.74870300292969, -38.9559211730957, -54.04969787597656, 6.044295310974121, 7.828069686889648, -0.14366167783737183, 12.078651428222656, -8.73818302154541, 1.683060646057129, 
207, 1275645064, 94.90342712402344, -38.962120056152344, -54.14181137084961, 6.027367115020752, 7.833241939544678, -0.14611919224262238, 12.087335586547852, -8.727042198181152, 1.6132874488830566, 
208, 1275653397, 95.04472351074219, -38.95810317993164, -54.22941970825195, 6.048473358154297, 7.831365585327148, -0.1504560112953186, 12.10470199584961, -8.740270614624023, 1.477378249168396, 
209, 1275661730, 95.2005844116211, -38.963218688964844, -54.321842193603516, 6.020718097686768, 7.825761795043945, -0.1412881314754486, 12.207670211791992, -8.760697364807129, 1.5312705039978027, 
210, 1275670063, 95.34194946289062, -38.959800720214844, -54.407691955566406, 6.051024913787842, 7.823521614074707, -0.14648966491222382, 12.175779342651367, -8.74552059173584, 1.6090353727340698, 
211, 1275678396, 95.49655151367188, -38.96469497680664, -54.49985122680664, 6.051589488983154, 7.838434219360352, -0.1425027996301651, 12.077754020690918, -8.736825942993164, 1.5483297109603882, 
212, 1275686729, 95.63507080078125, -38.960548400878906, -54.585391998291016, 6.04159688949585, 7.846158504486084, -0.1270407736301422, 12.054344177246094, -8.585100173950195, 1.5554249286651611, 
213, 1275695062, 95.78951263427734, -38.96384048461914, -54.676509857177734, 6.035591125488281, 7.8545823097229, -0.13264574110507965, 12.143404960632324, -8.649764060974121, 1.397282600402832, 
214, 1275703395, 95.9283218383789, -38.9593620300293, -54.7613639831543, 6.050776958465576, 7.842072010040283, -0.13695919513702393, 12.086617469787598, -8.700222969055176, 1.5811671018600464, 
215, 1275711728, 96.08248138427734, -38.96330642700195, -54.85188674926758, 6.053414344787598, 7.833768844604492, -0.140818789601326, 12.161603927612305, -8.585407257080078, 1.5158381462097168, 
216, 1275720061, 96.218994140625, -38.958377838134766, -54.93472671508789, 6.047215461730957, 7.848304271697998, -0.1303149312734604, 12.072452545166016, -8.50063705444336, 1.5563981533050537, 
217, 1275728394, 96.37047576904297, -38.961456298828125, -55.023494720458984, 6.06151008605957, 7.857630729675293, -0.1132642850279808, 11.978215217590332, -8.425687789916992, 1.4398785829544067, 
218, 1275736727, 96.50159454345703, -38.95611572265625, -55.103179931640625, 6.0499162673950195, 7.872633457183838, -0.10215245187282562, 11.793665885925293, -8.182685852050781, 1.520205020904541, 
219, 1275745060, 96.64824676513672, -38.95893859863281, -55.18856430053711, 6.058607578277588, 7.8754401206970215, -0.10538986325263977, 11.66024112701416, -8.112630844116211, 1.4172101020812988, 
220, 1275753393, 96.77346801757812, -38.951995849609375, -55.26516342163086, 6.072937965393066, 7.862990379333496, -0.07506323605775833, 11.490574836730957, -7.8509321212768555, 1.3356033563613892, 
221, 1275761726, 96.91588592529297, -38.95491027832031, -55.34601593017578, 6.059797763824463, 7.848752021789551, -0.08596136420965195, 11.498873710632324, -7.687103748321533, 1.419899821281433, 
222, 1275770059, 97.03558349609375, -38.9487419128418, -55.417755126953125, 6.072911739349365, 7.849313735961914, -0.0792662501335144, 11.197378158569336, -7.53719425201416, 1.429978847503662, 
223, 1275778392, 97.17150115966797, -38.95174026489258, -55.49474334716797, 6.039869785308838, 7.829427719116211, -0.08278051763772964, 11.018348693847656, -7.323738098144531, 1.4230245351791382, 
224, 1275786725, 97.28375244140625, -38.94481658935547, -55.56099319458008, 6.059304714202881, 7.799344539642334, -0.06898871809244156, 10.810795783996582, -7.0794806480407715, 1.3192100524902344, 
225, 1275795058, 97.41452026367188, -38.947242736816406, -55.63426208496094, 6.043710708618164, 7.823038101196289, -0.08595159649848938, 10.688180923461914, -6.9848103523254395, 1.343825340270996, 
226, 1275803391, 97.5206069946289, -38.94057083129883, -55.696529388427734, 6.053040981292725, 7.824997425079346, -0.03834882751107216, 10.491899490356445, -6.721573352813721, 1.334937334060669, 
227, 1275811724, 97.64598083496094, -38.94340133666992, -55.76555633544922, 6.046506404876709, 7.831851005554199, -0.10875678062438965, 10.369154930114746, -6.582870960235596, 1.3723081350326538, 
228, 1275820057, 97.74528503417969, -38.93728256225586, -55.82418441772461, 6.043914318084717, 7.836230754852295, -0.09326171875, 10.0650634765625, -6.402522087097168, 1.3867547512054443, 
229, 1275828390, 97.86450958251953, -38.939918518066406, -55.8902587890625, 6.024779796600342, 7.833025932312012, -0.0928710326552391, 9.861431121826172, -6.313384056091309, 1.3413920402526855, 
230, 1275836723, 97.95849609375, -38.93353271484375, -55.94680404663086, 6.038856506347656, 7.8139142990112305, -0.10208600759506226, 9.686614036560059, -6.260272979736328, 1.3637019395828247, 
231, 1275845056, 98.07217407226562, -38.93681716918945, -56.01041793823242, 6.058814525604248, 7.809818267822266, -0.07696890830993652, 9.387503623962402, -6.0720086097717285, 1.4117672443389893, 
232, 1275853389, 98.1590347290039, -38.930816650390625, -56.06365966796875, 6.019766807556152, 7.836556434631348, -0.08969777077436447, 9.169974327087402, -6.002913951873779, 1.3969491720199585, 
233, 1275861722, 98.26602172851562, -38.933895111083984, -56.123714447021484, 6.036271095275879, 7.807663440704346, -0.047532711178064346, 8.863423347473145, -5.7486677169799805, 1.365520715713501, 
234, 1275870055, 98.34577941894531, -38.9282112121582, -56.17803192138672, 6.047530651092529, 7.822073459625244, -0.06652770936489105, 8.701066970825195, -5.706468105316162, 1.4146102666854858, 
235, 1275878388, 98.4473648071289, -38.93151092529297, -56.236061096191406, 6.048428535461426, 7.846053600311279, -0.044190991669893265, 8.379222869873047, -5.548811912536621, 1.3857941627502441, 
236, 1275886721, 98.51793670654297, -38.926368713378906, -56.28196716308594, 6.041051387786865, 7.833892822265625, -0.06868071854114532, 8.088642120361328, -5.280797004699707, 1.4379063844680786, 
237, 1275895054, 98.61166381835938, -38.9296760559082, -56.335628509521484, 6.068961143493652, 7.820828437805176, -0.0700240209698677, 7.7744340896606445, -5.1485772132873535, 1.3466941118240356, 
238, 1275903387, 98.6759033203125, -38.92488479614258, -56.37560272216797, 6.059875965118408, 7.828855514526367, -0.06487548351287842, 7.699871063232422, -5.002268314361572, 1.454581379890442, 
239, 1275911720, 98.76305389404297, -38.92899703979492, -56.42504119873047, 6.05935001373291, 7.817840576171875, -0.019809123128652573, 7.310993671417236, -4.744895935058594, 1.3971797227859497, 
240, 1275920053, 98.81690979003906, -38.92329025268555, -56.45977020263672, 6.057746887207031, 7.826387405395508, -0.050403572618961334, 7.024038791656494, -4.50681209564209, 1.2801228761672974, 
241, 1275928386, 98.8958511352539, -38.92717742919922, -56.503726959228516, 6.065823554992676, 7.821778297424316, -0.049139346927404404, 6.751734256744385, -4.245803356170654, 1.3085802793502808, 
242, 1275936719, 98.93966674804688, -38.922645568847656, -56.532554626464844, 6.031863689422607, 7.832441806793213, -0.03372790291905403, 6.352485179901123, -4.027851581573486, 1.3558896780014038, 
243, 1275945052, 99.01017761230469, -38.92708206176758, -56.57240676879883, 6.053474426269531, 7.824667453765869, -0.005887722596526146, 6.0568060874938965, -3.8572728633880615, 1.326241135597229, 
244, 1275953385, 99.0439453125, -38.923622131347656, -56.593631744384766, 6.062035083770752, 7.814713478088379, -0.050648391246795654, 5.7709641456604, -3.4380576610565186, 1.401559591293335, 
245, 1275961718, 99.10630798339844, -38.929012298583984, -56.627296447753906, 6.038980484008789, 7.808034420013428, -0.06412207335233688, 5.555215835571289, -3.272078037261963, 1.3598084449768066, 
246, 1275970051, 99.13154602050781, -38.92515182495117, -56.64582443237305, 6.031250476837158, 7.825166702270508, -0.04724516347050667, 5.2529168128967285, -3.0124008655548096, 1.2924176454544067, 
247, 1275978384, 99.18524932861328, -38.93058395385742, -56.674808502197266, 6.042263507843018, 7.80068826675415, -0.03904857486486435, 4.883481979370117, -2.8394277095794678, 1.3027654886245728, 
248, 1275986717, 99.19941711425781, -38.927433013916016, -56.68580627441406, 6.04826545715332, 7.830853462219238, -0.038152750581502914, 4.482453346252441, -2.5083508491516113, 1.30157470703125, 
249, 1275995050, 99.24591827392578, -38.93318557739258, -56.709991455078125, 6.035528182983398, 7.800458908081055, -0.006478611379861832, 4.388537883758545, -2.3945083618164062, 1.279456615447998, 
250, 1276003383, 99.25016021728516, -38.92979431152344, -56.71441650390625, 6.042802333831787, 7.825464725494385, -0.06011481210589409, 3.9211552143096924, -1.933810830116272, 1.183633804321289, 
251, 1276011716, 99.28598022460938, -38.93598937988281, -56.732025146484375, 6.00899600982666, 7.80657434463501, -0.020588062703609467, 3.616013288497925, -1.7860420942306519, 1.237449288368225, 
252, 1276020049, 99.28162384033203, -38.93387222290039, -56.73323440551758, 6.025691509246826, 7.815634727478027, -0.02827230840921402, 3.360766887664795, -1.5235986709594727, 1.2775355577468872, 
253, 1276028382, 99.30999755859375, -38.94065475463867, -56.74672317504883, 6.0506510734558105, 7.836599826812744, -0.030218737199902534, 3.0440855026245117, -1.3948489427566528, 1.249629020690918, 
254, 1276036715, 99.29503631591797, -38.93939208984375, -56.73975372314453, 6.042469024658203, 7.82578182220459, -0.0001697363331913948, 2.7416839599609375, -0.8939111828804016, 1.2857705354690552, 
255, 1276045048, 99.31267547607422, -38.946136474609375, -56.744956970214844, 6.037800312042236, 7.819889545440674, -0.020233625546097755, 2.394278049468994, -0.6387421488761902, 1.123632550239563, 
256, 1276053381, 99.28785705566406, -38.94562911987305, -56.732688903808594, 6.049129009246826, 7.807684421539307, -0.011295406147837639, 2.025804281234741, -0.49859389662742615, 1.3185951709747314, 
257, 1276061714, 99.29769134521484, -38.95409393310547, -56.733863830566406, 6.045960426330566, 7.8049235343933105, -0.041384849697351456, 1.773888349533081, -0.23950591683387756, 1.2712088823318481, 
258, 1276070047, 99.26158142089844, -38.95456314086914, -56.71486282348633, 6.055970191955566, 7.796585559844971, -0.048617251217365265, 1.3652386665344238, 0.1869070678949356, 1.3267916440963745, 
259, 1276078380, 99.26130676269531, -38.96439743041992, -56.70922088623047, 6.048941612243652, 7.79327392578125, -0.061452023684978485, 1.087682843208313, 0.41098037362098694, 1.336909294128418, 
260, 1276086713, 99.2165756225586, -38.96560287475586, -56.68474197387695, 6.0502824783325195, 7.811412334442139, -0.025793151929974556, 0.7494212985038757, 0.5396918654441833, 1.3679282665252686, 
261, 1276095046, 99.20829772949219, -38.974884033203125, -56.6741943359375, 6.050117015838623, 7.814272403717041, -0.062429606914520264, 0.5088011026382446, 0.844885528087616, 1.2031261920928955, 
262, 1276103379, 99.1534194946289, -38.97590637207031, -56.63985824584961, 6.05148458480835, 7.851719856262207, -0.08475445210933685, 0.13073506951332092, 1.094726800918579, 1.2641137838363647, 
263, 1276111712, 99.13662719726562, -38.985694885253906, -56.62522888183594, 6.053474426269531, 7.852877616882324, -0.05697648599743843, -0.19241413474082947, 1.221453309059143, 1.2102854251861572, 
264, 1276120045, 99.0721435546875, -38.986209869384766, -56.588130950927734, 6.03600549697876, 7.862974643707275, -0.07987561076879501, -0.5131427049636841, 1.5428478717803955, 1.1389882564544678, 
265, 1276128378, 99.04708099365234, -38.99592208862305, -56.56850051879883, 6.049220561981201, 7.851634502410889, -0.062248144298791885, -0.792133092880249, 1.6749660968780518, 1.1349154710769653, 
266, 1276136711, 98.97443389892578, -38.99629592895508, -56.525001525878906, 6.037180423736572, 7.84622859954834, -0.09505210071802139, -1.079447865486145, 1.8907148838043213, 1.088553786277771, 
267, 1276145044, 98.94209289550781, -39.007320404052734, -56.50078582763672, 6.044238090515137, 7.833794593811035, -0.06447917968034744, -1.306774377822876, 2.1117658615112305, 1.2314043045043945, 
268, 1276153377, 98.86067962646484, -39.00951385498047, -56.4537239074707, 6.039605617523193, 7.806660175323486, -0.08815044909715652, -1.6607885360717773, 2.347339630126953, 1.2526897192001343, 
269, 1276161710, 98.821044921875, -39.020782470703125, -56.4258918762207, 6.051662445068359, 7.800009250640869, -0.1200856938958168, -1.8941470384597778, 2.444391965866089, 1.2214148044586182, 
270, 1276170043, 98.73347473144531, -39.02233123779297, -56.37285232543945, 6.051610946655273, 7.796613693237305, -0.10963423550128937, -1.9808259010314941, 2.707488775253296, 1.1380277872085571, 
271, 1276178376, 98.68822479248047, -39.03350067138672, -56.34086608886719, 6.060920238494873, 7.787405014038086, -0.07718399912118912, -2.240835666656494, 2.8135826587677, 1.1584166288375854, 
272, 1276186709, 98.59388732910156, -39.03543472290039, -56.28666305541992, 6.050772666931152, 7.819625377655029, -0.09611707925796509, -2.5312881469726562, 2.8985836505889893, 1.174233317375183, 
273, 1276195042, 98.54328155517578, -39.04656982421875, -56.25274658203125, 6.024664402008057, 7.8319993019104, -0.11459963023662567, -2.722140073776245, 2.984442949295044, 1.1399872303009033, 
274, 1276203375, 98.44275665283203, -39.04853439331055, -56.19362258911133, 6.0335893630981445, 7.844239711761475, -0.13404986262321472, -3.0008487701416016, 3.1005265712738037, 1.1735420227050781, 
275, 1276211708, 98.38726043701172, -39.05967330932617, -56.15655517578125, 6.03394889831543, 7.836423873901367, -0.09657842665910721, -3.058993101119995, 3.2644832134246826, 1.1131434440612793, 
276, 1276220041, 98.28101348876953, -39.06156539916992, -56.09374237060547, 6.032445430755615, 7.873998641967773, -0.12364880740642548, -3.3520452976226807, 3.389711380004883, 1.1514365673065186, 
277, 1276228374, 98.21847534179688, -39.072776794433594, -56.05256271362305, 6.041586875915527, 7.8948163986206055, -0.10810468345880508, -3.5767335891723633, 3.631406784057617, 1.081023097038269, 
278, 1276236707, 98.10578155517578, -39.07527542114258, -55.98705291748047, 6.046512126922607, 7.860561370849609, -0.09884730726480484, -3.7096199989318848, 3.7895495891571045, 1.1984387636184692, 
279, 1276245040, 98.0388412475586, -39.086708068847656, -55.94258499145508, 6.043643474578857, 7.848786354064941, -0.10875698179006577, -3.841852903366089, 3.933795928955078, 1.0828801393508911, 
280, 1276253373, 97.91996765136719, -39.087650299072266, -55.869712829589844, 6.046991348266602, 7.851776599884033, -0.10019791126251221, -3.9922473430633545, 4.222224712371826, 0.9861224293708801, 
281, 1276261706, 97.84656524658203, -39.09762954711914, -55.81962203979492, 6.045621395111084, 7.8233819007873535, -0.08036981523036957, -4.178155899047852, 4.414741516113281, 0.8589733242988586, 
282, 1276270039, 97.72212982177734, -39.0986213684082, -55.746402740478516, 6.035382270812988, 7.826085090637207, -0.09564553201198578, -4.29489278793335, 4.555862903594971, 0.9771702289581299, 
283, 1276278372, 97.64400482177734, -39.10994338989258, -55.69309616088867, 6.063879489898682, 7.822021961212158, -0.1261303871870041, -4.485077857971191, 4.726184844970703, 0.9991599917411804, 
284, 1276286705, 97.5144271850586, -39.11037063598633, -55.61160659790039, 6.074728012084961, 7.818417549133301, -0.1099943071603775, -4.581220626831055, 4.857534408569336, 0.9127888679504395, 
285, 1276295038, 97.4317855834961, -39.12191390991211, -55.555274963378906, 6.049537658691406, 7.809457778930664, -0.12010465562343597, -4.786416053771973, 4.997567176818848, 1.012505054473877, 
286, 1276303371, 97.29843139648438, -39.12351608276367, -55.47077178955078, 6.079587936401367, 7.819569110870361, -0.16405639052391052, -4.811006546020508, 5.0675458908081055, 1.0683696269989014, 
287, 1276311704, 97.21271514892578, -39.135372161865234, -55.412208557128906, 6.055054187774658, 7.8147993087768555, -0.13207906484603882, -4.969686508178711, 5.193696022033691, 1.0499786138534546, 
288, 1276320037, 97.07485961914062, -39.136207580566406, -55.32255172729492, 6.065627574920654, 7.833563327789307, -0.15402153134346008, -5.023848533630371, 5.379528045654297, 0.9764147996902466, 
289, 1276328370, 96.98584747314453, -39.14802932739258, -55.26050567626953, 6.075064182281494, 7.850465297698975, -0.18699175119400024, -5.088242530822754, 5.500055313110352, 1.0329581499099731, 
290, 1276336703, 96.84420013427734, -39.14871597290039, -55.168514251708984, 6.044912338256836, 7.888675689697266, -0.16474385559558868, -5.201931476593018, 5.658851623535156, 0.9698575139045715, 
291, 1276345036, 96.75387573242188, -39.15941619873047, -55.10465621948242, 6.049030780792236, 7.856871128082275, -0.18075424432754517, -5.094403266906738, 5.643636226654053, 0.9100483059883118, 
292, 1276353369, 96.61123657226562, -39.1590461730957, -55.013126373291016, 6.047984600067139, 7.853972434997559, -0.13153620064258575, -5.186434745788574, 5.748884677886963, 0.8804636597633362, 
293, 1276361702, 96.51776885986328, -39.170326232910156, -54.947181701660156, 6.044350624084473, 7.839911460876465, -0.14397652447223663, -5.297319412231445, 5.833693504333496, 0.9853797554969788, 
294, 1276370035, 96.37362670898438, -39.169281005859375, -54.85449981689453, 6.0459489822387695, 7.829973220825195, -0.16291958093643188, -5.305182456970215, 5.7672505378723145, 0.8500341773033142, 
295, 1276378368, 96.2803955078125, -39.179359436035156, -54.78902816772461, 6.054402828216553, 7.7942399978637695, -0.1893291026353836, -5.291863918304443, 5.764484405517578, 0.8811042308807373, 
296, 1276386701, 96.13481903076172, -39.178165435791016, -54.69490051269531, 6.069746017456055, 7.79205322265625, -0.18317963182926178, -5.3917975425720215, 5.837523460388184, 0.876122236251831, 
297, 1276395034, 96.0394287109375, -39.18812942504883, -54.627845764160156, 6.0730085372924805, 7.7931413650512695, -0.21305406093597412, -5.4142866134643555, 5.89436149597168, 0.8805022239685059, 
298, 1276403367, 95.8939437866211, -39.18745040893555, -54.532989501953125, 6.048717975616455, 7.802491188049316, -0.1846318542957306, -5.411942481994629, 5.783567428588867, 0.9924237132072449, 
299, 1276411700, 95.80042266845703, -39.1976432800293, -54.46733856201172, 6.060181140899658, 7.797839641571045, -0.2240181416273117, -5.282412052154541, 5.7531890869140625, 0.9531058669090271, 
300, 1276420033, 95.65626525878906, -39.19696807861328, -54.373138427734375, 6.06756067276001, 7.811099052429199, -0.19540506601333618, -5.268259048461914, 5.745593070983887, 1.0438953638076782, 
301, 1276428366, 95.56301879882812, -39.20774841308594, -54.308738708496094, 6.045062065124512, 7.829502582550049, -0.19843418896198273, -5.3309760093688965, 5.638564586639404, 1.0642460584640503, 
302, 1276436699, 95.41987609863281, -39.206329345703125, -54.21613311767578, 6.0442986488342285, 7.852625370025635, -0.232253760099411, -5.222602844238281, 5.634210109710693, 1.0138884782791138, 
303, 1276445032, 95.3278579711914, -39.21638488769531, -54.15248489379883, 6.057746887207031, 7.8630805015563965, -0.2397291362285614, -5.226188659667969, 5.5488386154174805, 1.0181403160095215, 
304, 1276453365, 95.18608856201172, -39.21369552612305, -54.062225341796875, 6.053247928619385, 7.862295150756836, -0.2095828801393509, -5.2353057861328125, 5.403347969055176, 0.933843731880188, 
305, 1276461698, 95.09564208984375, -39.2232551574707, -53.99968338012695, 6.032275199890137, 7.857166290283203, -0.22029291093349457, -5.1095662117004395, 5.431191921234131, 0.9971110224723816, 
306, 1276470031, 94.95528411865234, -39.219512939453125, -53.907806396484375, 6.0569634437561035, 7.82659912109375, -0.21418480575084686, -5.115713596343994, 5.34115743637085, 0.866683304309845, 
307, 1276478364, 94.86697387695312, -39.22770309448242, -53.848079681396484, 6.032419204711914, 7.8354949951171875, -0.2108064442873001, -5.0547776222229, 5.139573574066162, 0.8828202486038208, 
308, 1276486697, 94.73202514648438, -39.22444534301758, -53.761837005615234, 6.021111965179443, 7.817783355712891, -0.20574651658535004, -4.736776351928711, 5.024514198303223, 0.9995443224906921, 
309, 1276495030, 94.6469497680664, -39.233070373535156, -53.70378875732422, 6.031900882720947, 7.795539379119873, -0.22117196023464203, -4.776631832122803, 4.982198715209961, 0.9735202193260193, 
310, 1276503363, 94.51429748535156, -39.22903060913086, -53.616798400878906, 6.0375776290893555, 7.799402713775635, -0.20550566911697388, -4.631130695343018, 4.832369327545166, 0.9685127139091492, 
311, 1276511696, 94.43194580078125, -39.2373046875, -53.5606689453125, 6.030475616455078, 7.791941165924072, -0.2276720404624939, -4.587432861328125, 4.787056922912598, 0.9755565524101257, 
312, 1276520029, 94.30339813232422, -39.23244857788086, -53.47566604614258, 6.035827159881592, 7.786754608154297, -0.2331625074148178, -4.409246921539307, 4.5162763595581055, 0.933049738407135, 
313, 1276528362, 94.22406768798828, -39.240177154541016, -53.42205047607422, 6.028857707977295, 7.8014020919799805, -0.22414696216583252, -4.405994415283203, 4.537331581115723, 0.9510565996170044, 
314, 1276536695, 94.09883117675781, -39.235443115234375, -53.340599060058594, 6.030664443969727, 7.826261520385742, -0.20614023506641388, -4.1091508865356445, 4.429828643798828, 0.9959070086479187, 
315, 1276545028, 94.025146484375, -39.24290084838867, -53.2896728515625, 6.020647048950195, 7.816027641296387, -0.19187626242637634, -3.9174792766571045, 4.275989055633545, 0.9581260085105896, 
316, 1276553361, 93.90302276611328, -39.237709045410156, -53.21017074584961, 6.039992332458496, 7.821937561035156, -0.1936807781457901, -3.920219898223877, 4.237874984741211, 0.9959326386451721, 
317, 1276561694, 93.8320541381836, -39.24538803100586, -53.16055679321289, 6.0439534187316895, 7.8221893310546875, -0.20063868165016174, -3.678370714187622, 4.146406650543213, 1.0154763460159302, 
318, 1276570027, 93.71491241455078, -39.24003601074219, -53.08168411254883, 6.044611930847168, 7.833305358886719, -0.21199072897434235, -3.4655420780181885, 4.092642784118652, 1.0215213298797607, 
319, 1276578360, 93.64842987060547, -39.24686813354492, -53.03462219238281, 6.0313873291015625, 7.815394878387451, -0.21153897047042847, -3.32271671295166, 3.891467809677124, 0.9499038457870483, 
320, 1276586693, 93.53559112548828, -39.24068832397461, -52.959259033203125, 6.03408670425415, 7.831511974334717, -0.2256663739681244, -3.164369583129883, 3.8685944080352783, 0.9721369743347168, 
321, 1276595026, 93.47307586669922, -39.24765396118164, -52.91352462768555, 6.043340682983398, 7.8068132400512695, -0.2385074645280838, -2.934610366821289, 3.7609639167785645, 0.9918601512908936, 
322, 1276603359, 93.36626434326172, -39.24127960205078, -52.838714599609375, 6.050567150115967, 7.768535137176514, -0.24300649762153625, -2.739532232284546, 3.5565624237060547, 1.0025155544281006, 
323, 1276611692, 93.31123352050781, -39.2476692199707, -52.798404693603516, 6.030045032501221, 7.790464401245117, -0.2540917694568634, -2.4391794204711914, 3.241788625717163, 0.9701904058456421, 
324, 1276620025, 93.2120132446289, -39.2415657043457, -52.73284149169922, 6.051468372344971, 7.776570796966553, -0.26467084884643555, -2.249634027481079, 3.1005773544311523, 1.09126877784729, 
325, 1276628358, 93.16244506835938, -39.24827194213867, -52.69603729248047, 6.050139904022217, 7.77301549911499, -0.2670203447341919, -2.03816294670105, 2.91397762298584, 1.0422176122665405, 
326, 1276636691, 93.07029724121094, -39.24138259887695, -52.63113021850586, 6.032395362854004, 7.779565811157227, -0.28029492497444153, -1.706945538520813, 2.77601957321167, 1.031126618385315, 
327, 1276645024, 93.02815246582031, -39.24853515625, -52.59828186035156, 6.024729251861572, 7.785584449768066, -0.2817564010620117, -1.4374581575393677, 2.5382425785064697, 1.128947377204895, 
328, 1276653357, 92.94348907470703, -39.241703033447266, -52.53846740722656, 6.037667274475098, 7.781247138977051, -0.2625516653060913, -1.2551871538162231, 2.3054347038269043, 1.0879391431808472, 
329, 1276661690, 92.90725708007812, -39.248863220214844, -52.5094108581543, 6.042271137237549, 7.808462142944336, -0.2674330770969391, -1.008009910583496, 2.175084114074707, 1.1616824865341187, 
330, 1276670023, 92.8300552368164, -39.241737365722656, -52.45594024658203, 6.011702060699463, 7.803120136260986, -0.24446578323841095, -0.694517195224762, 1.9621784687042236, 1.0914225578308105, 
331, 1276678356, 92.80152893066406, -39.248138427734375, -52.43242263793945, 5.993857383728027, 7.789802551269531, -0.24409255385398865, -0.4898594617843628, 1.6489933729171753, 1.1052542924880981, 
332, 1276686689, 92.73107147216797, -39.24098587036133, -52.38516616821289, 6.005161762237549, 7.8007588386535645, -0.2447759062051773, -0.2986491620540619, 1.5231504440307617, 1.1313294172286987, 
333, 1276695022, 92.70977020263672, -39.24708557128906, -52.36671829223633, 6.00788688659668, 7.804152488708496, -0.26742300391197205, 0.0036372211761772633, 1.1721587181091309, 1.1018987894058228, 
334, 1276703355, 92.64845275878906, -39.23965835571289, -52.32463073730469, 5.99135684967041, 7.796670913696289, -0.27891045808792114, 0.2814876437187195, 0.95916348695755, 1.143252968788147, 
335, 1276711688, 92.63380432128906, -39.24567413330078, -52.310035705566406, 6.023044109344482, 7.784911155700684, -0.25301751494407654, 0.5158706903457642, 0.8029549717903137, 1.1142704486846924, 
336, 1276720021, 92.58043670654297, -39.23820114135742, -52.272212982177734, 6.003739356994629, 7.76128625869751, -0.26269567012786865, 0.7928374409675598, 0.4909992516040802, 1.1749249696731567, 
337, 1276728354, 92.57470703125, -39.24480438232422, -52.26385498046875, 6.010483741760254, 7.756521224975586, -0.261135995388031, 1.1231842041015625, 0.2204873263835907, 1.2190070152282715, 
338, 1276736687, 92.52986145019531, -39.23707580566406, -52.23279571533203, 5.992382526397705, 7.771289825439453, -0.25898313522338867, 1.3958733081817627, 0.04369788244366646, 1.1755139827728271, 
339, 1276745020, 92.53195190429688, -39.24317169189453, -52.22844314575195, 5.994883060455322, 7.780719757080078, -0.2771260142326355, 1.7713524103164673, -0.16066530346870422, 1.179919719696045, 
340, 1276753353, 92.49512481689453, -39.2355842590332, -52.203208923339844, 6.017627239227295, 7.766391754150391, -0.2732369601726532, 1.9554673433303833, -0.37218764424324036, 1.224616527557373, 
341, 1276761686, 92.5035171508789, -39.24134063720703, -52.20371627807617, 6.012030124664307, 7.780189037322998, -0.2552565038204193, 2.169372081756592, -0.617520809173584, 1.1655502319335938, 
342, 1276770019, 92.47567749023438, -39.233551025390625, -52.181312561035156, 6.005372524261475, 7.7897844314575195, -0.2288256287574768, 2.4880645275115967, -0.9666428565979004, 1.232838749885559, 
343, 1276778352, 92.49280548095703, -39.240882873535156, -52.187469482421875, 6.006182670593262, 7.787101745605469, -0.2653966546058655, 2.793642282485962, -1.1476587057113647, 1.3812220096588135, 
344, 1276786685, 92.47327423095703, -39.23317337036133, -52.1706657409668, 6.016861915588379, 7.799077987670898, -0.2536671459674835, 3.0385913848876953, -1.4473965167999268, 1.2727969884872437, 
345, 1276795018, 92.49954223632812, -39.239410400390625, -52.183048248291016, 6.013067722320557, 7.8032426834106445, -0.2614336609840393, 3.4263904094696045, -1.7358638048171997, 1.2835549116134644, 
346, 1276803351, 92.48839569091797, -39.23114776611328, -52.174530029296875, 6.016748905181885, 7.795210361480713, -0.25094515085220337, 3.6647825241088867, -1.847951889038086, 1.2362711429595947, 
347, 1276811684, 92.52226257324219, -39.2378044128418, -52.191375732421875, 6.017821788787842, 7.769408226013184, -0.2366318702697754, 4.011547565460205, -2.151224374771118, 1.35512113571167, 
348, 1276820017, 92.51954650878906, -39.230133056640625, -52.187705993652344, 6.012324810028076, 7.779888153076172, -0.27585479617118835, 4.196431636810303, -2.36802339553833, 1.3362690210342407, 
349, 1276828350, 92.56016540527344, -39.235877990722656, -52.208953857421875, 6.047087669372559, 7.762128829956055, -0.23486505448818207, 4.495477676391602, -2.570939302444458, 1.2710295915603638, 
350, 1276836683, 92.56661224365234, -39.227821350097656, -52.21034240722656, 6.033201217651367, 7.766772747039795, -0.25725257396698, 4.846930503845215, -2.853771686553955, 1.3190562725067139, 
351, 1276845016, 92.6158447265625, -39.234439849853516, -52.23709487915039, 6.032755374908447, 7.773025035858154, -0.22019359469413757, 5.1241536140441895, -3.083505868911743, 1.4034039974212646, 
352, 1276853349, 92.62950134277344, -39.226322174072266, -52.24236297607422, 6.0281453132629395, 7.775745391845703, -0.23988232016563416, 5.347125053405762, -3.241647720336914, 1.3340917825698853, 
353, 1276861682, 92.68549346923828, -39.23198318481445, -52.27216339111328, 6.035137176513672, 7.781239986419678, -0.2283683866262436, 5.707595348358154, -3.375943660736084, 1.3104755878448486, 
354, 1276870015, 92.70635986328125, -39.2242546081543, -52.28384780883789, 6.026740550994873, 7.7796711921691895, -0.22060592472553253, 5.880285263061523, -3.59320330619812, 1.4043772220611572, 
355, 1276878348, 92.76924896240234, -39.23003387451172, -52.318302154541016, 6.0190815925598145, 7.79224967956543, -0.2173626720905304, 6.195827960968018, -3.812307596206665, 1.354813814163208, 
356, 1276886681, 92.79859924316406, -39.22224044799805, -52.3327751159668, 6.011367321014404, 7.804931640625, -0.26865312457084656, 6.523459434509277, -3.999112606048584, 1.4223586320877075, 
357, 1276895014, 92.86895751953125, -39.22763442993164, -52.372074127197266, 6.020768165588379, 7.805918216705322, -0.27348431944847107, 6.732241630554199, -4.270188331604004, 1.340085744857788, 
358, 1276903347, 92.9065933227539, -39.219093322753906, -52.39231872558594, 6.030309200286865, 7.7931342124938965, -0.26149410009384155, 7.022475242614746, -4.552584648132324, 1.372692346572876, 
359, 1276911680, 92.98457336425781, -39.22464370727539, -52.43629455566406, 6.035017967224121, 7.8071184158325195, -0.26912713050842285, 7.300313949584961, -4.705322742462158, 1.3948233127593994, 
360, 1276920013, 93.0291748046875, -39.21648406982422, -52.4624137878418, 6.022464275360107, 7.773168087005615, -0.2378067821264267, 7.53696346282959, -4.8936381340026855, 1.4479727745056152, 
361, 1276928346, 93.11465454101562, -39.22135925292969, -52.51069641113281, 6.004247188568115, 7.809306621551514, -0.2555255889892578, 7.883575916290283, -5.113665580749512, 1.3479748964309692, 
362, 1276936679, 93.16678619384766, -39.21232223510742, -52.54253387451172, 6.0115556716918945, 7.790448188781738, -0.2704450488090515, 7.995995998382568, -5.399826526641846, 1.3832967281341553, 
363, 1276945012, 93.25830078125, -39.217567443847656, -52.59524917602539, 6.030117988586426, 7.795151710510254, -0.23290401697158813, 8.281108856201172, -5.521008014678955, 1.4320919513702393, 
364, 1276953345, 93.31726837158203, -39.20866775512695, -52.627342224121094, 6.028963565826416, 7.801729679107666, -0.26529067754745483, 8.554438591003418, -5.681302547454834, 1.4254580736160278, 
365, 1276961678, 93.41419982910156, -39.213993072509766, -52.68302536010742, 6.011759281158447, 7.792952060699463, -0.20263901352882385, 8.711236000061035, -5.80433988571167, 1.4779800176620483, 
366, 1276970011, 93.47784423828125, -39.20558547973633, -52.720924377441406, 6.0138750076293945, 7.789366245269775, -0.2081611454486847, 8.860221862792969, -5.95283842086792, 1.519923210144043, 
367, 1276978344, 93.58081817626953, -39.21079635620117, -52.7799072265625, 6.018065452575684, 7.787757396697998, -0.21256420016288757, 9.19597339630127, -6.109904766082764, 1.5021214485168457, 
368, 1276986677, 93.650390625, -39.20107650756836, -52.82168960571289, 6.033863067626953, 7.798328399658203, -0.1984506994485855, 9.327630043029785, -6.244994640350342, 1.3937219381332397, 
369, 1276995010, 93.75755310058594, -39.205772399902344, -52.883636474609375, 6.0253400802612305, 7.805794715881348, -0.20980572700500488, 9.481953620910645, -6.392967224121094, 1.4800673723220825, 
370, 1277003343, 93.8322525024414, -39.196781158447266, -52.930458068847656, 6.02077579498291, 7.820248603820801, -0.20254643261432648, 9.617094993591309, -6.618091106414795, 1.5265573263168335, 
371, 1277011676, 93.94514465332031, -39.2008056640625, -52.996826171875, 6.017355918884277, 7.818605899810791, -0.21145595610141754, 9.845447540283203, -6.808380603790283, 1.4504574537277222, 
372, 1277020009, 94.02397918701172, -39.19132995605469, -53.04408264160156, 6.017229080200195, 7.811298370361328, -0.21985754370689392, 9.894369125366211, -6.873234748840332, 1.5042216777801514, 
373, 1277028342, 94.13925170898438, -39.19567108154297, -53.111454010009766, 6.0314459800720215, 7.80594539642334, -0.21353720128536224, 10.063217163085938, -6.902946472167969, 1.5196669101715088, 
374, 1277036675, 94.22354888916016, -39.18634033203125, -53.16642379760742, 6.0296478271484375, 7.8187947273254395, -0.19606977701187134, 10.292301177978516, -7.181028842926025, 1.5657343864440918, 
375, 1277045008, 94.34532165527344, -39.18984603881836, -53.23867416381836, 6.022000789642334, 7.799849987030029, -0.21969634294509888, 10.484560012817383, -7.358048439025879, 1.4819244146347046, 
376, 1277053341, 94.43236541748047, -39.179290771484375, -53.295982360839844, 6.040918827056885, 7.807949066162109, -0.19264346361160278, 10.477863311767578, -7.359317302703857, 1.4547606706619263, 
377, 1277061674, 94.55620574951172, -39.18217468261719, -53.37037658691406, 6.040513038635254, 7.8111891746521, -0.21568015217781067, 10.578886032104492, -7.564846038818359, 1.4539412260055542, 
378, 1277070007, 94.64775085449219, -39.171749114990234, -53.4293098449707, 6.050267696380615, 7.808191776275635, -0.20134304463863373, 10.707033157348633, -7.745221138000488, 1.518770694732666, 
379, 1277078340, 94.77516174316406, -39.17491149902344, -53.506263732910156, 6.0352253913879395, 7.816247940063477, -0.18694543838500977, 10.819376945495605, -7.802467346191406, 1.537673830986023, 
380, 1277086673, 94.86847686767578, -39.16448211669922, -53.567752838134766, 6.047203540802002, 7.819556713104248, -0.19688430428504944, 10.84798812866211, -7.8422722816467285, 1.5523252487182617, 
381, 1277095006, 94.99825286865234, -39.16732406616211, -53.645572662353516, 6.055071830749512, 7.817904949188232, -0.18693120777606964, 11.050148963928223, -7.884626388549805, 1.5388649702072144, 
382, 1277103339, 95.09381866455078, -39.156551361083984, -53.707115173339844, 6.046339511871338, 7.8298258781433105, -0.18926243484020233, 11.101174354553223, -7.877506732940674, 1.5361499786376953, 
383, 1277111672, 95.22486114501953, -39.15907287597656, -53.786888122558594, 6.042571067810059, 7.844191074371338, -0.1610049456357956, 11.063212394714355, -8.0718412399292, 1.5500842332839966, 
384, 1277120005, 95.32293701171875, -39.147911071777344, -53.85003662109375, 6.036391258239746, 7.841487407684326, -0.1438227742910385, 11.219038009643555, -8.125516891479492, 1.5400052070617676, 
385, 1277128338, 95.45586395263672, -39.15087127685547, -53.92994689941406, 6.0521697998046875, 7.831203937530518, -0.1826068013906479, 11.288195610046387, -8.079179763793945, 1.6362121105194092, 
386, 1277136671, 95.55290222167969, -39.13945770263672, -53.9951057434082, 6.02569055557251, 7.836450099945068, -0.1347946971654892, 11.158305168151855, -8.08635139465332, 1.5285810232162476, 
387, 1277145004, 95.68592834472656, -39.1417236328125, -54.07548904418945, 6.049831390380859, 7.850109100341797, -0.16433200240135193, 11.275491714477539, -8.132458686828613, 1.5939230918884277, 
388, 1277153337, 95.78489685058594, -39.12992858886719, -54.140933990478516, 6.033359527587891, 7.8408026695251465, -0.17306968569755554, 11.457609176635742, -8.03840160369873, 1.5071675777435303, 
389, 1277161670, 95.91876220703125, -39.13107681274414, -54.22138214111328, 6.0333757400512695, 7.824139595031738, -0.1766149252653122, 11.383481979370117, -8.146775245666504, 1.4951289892196655, 
390, 1277170003, 96.01830291748047, -39.1195182800293, -54.28593826293945, 6.05238676071167, 7.817448139190674, -0.14701169729232788, 11.50263786315918, -8.107995986938477, 1.5660289525985718, 
391, 1277178336, 96.15335083007812, -39.1209831237793, -54.366172790527344, 6.058326721191406, 7.8120927810668945, -0.1574605405330658, 11.549818992614746, -8.12851333618164, 1.567873239517212, 
392, 1277186669, 96.25179290771484, -39.10907745361328, -54.43193435668945, 6.039726734161377, 7.819991588592529, -0.1658894121646881, 11.434800148010254, -8.076170921325684, 1.5458580255508423, 
393, 1277195002, 96.38443756103516, -39.11076354980469, -54.511077880859375, 6.052974224090576, 7.808250427246094, -0.13615164160728455, 11.356305122375488, -8.021932601928711, 1.614209532737732, 
394, 1277203335, 96.48191833496094, -39.09902572631836, -54.57490921020508, 6.05222749710083, 7.812601089477539, -0.13067536056041718, 11.391908645629883, -8.037403106689453, 1.5830626487731934, 
395, 1277211668, 96.6139144897461, -39.09965515136719, -54.65342330932617, 6.053349018096924, 7.819868564605713, -0.1451246738433838, 11.337299346923828, -7.979233741760254, 1.5156972408294678, 
396, 1277220001, 96.70928192138672, -39.08738327026367, -54.7140998840332, 6.034939765930176, 7.842164516448975, -0.18091954290866852, 11.326974868774414, -7.866478443145752, 1.5222798585891724, 
397, 1277228334, 96.83973693847656, -39.0879020690918, -54.791080474853516, 6.032349586486816, 7.8438544273376465, -0.1556166708469391, 11.276579856872559, -7.840698719024658, 1.521114468574524, 
398, 1277236667, 96.93482208251953, -39.075714111328125, -54.8569450378418, 6.06756067276001, 7.858755111694336, -0.16826942563056946, 11.233638763427734, -7.995114803314209, 1.5666950941085815, 
399, 1277245000, 97.0641098022461, -39.07535171508789, -54.93440246582031, 6.031377792358398, 7.853565216064453, -0.15766067802906036, 11.116541862487793, -7.896819114685059, 1.4552345275878906, 
400, 1277253333, 97.15469360351562, -39.062355041503906, -54.994232177734375, 6.050671577453613, 7.8794074058532715, -0.12139589339494705, 11.00527286529541, -7.688318729400635, 1.454671025276184, 
401, 1277261666, 97.279296875, -39.0622444152832, -55.068260192871094, 6.048652172088623, 7.875438690185547, -0.12061341851949692, 10.821900367736816, -7.578792572021484, 1.4748806953430176, 
402, 1277269999, 97.36518096923828, -39.04881286621094, -55.12324905395508, 6.045677185058594, 7.831507205963135, -0.12918433547019958, 10.783492088317871, -7.346176624298096, 1.3791217803955078, 
403, 1277278332, 97.48652648925781, -39.04799270629883, -55.19581985473633, 6.041975021362305, 7.837640285491943, -0.1336303949356079, 10.550735473632812, -7.4554972648620605, 1.4068108797073364, 
404, 1277286665, 97.56836700439453, -39.034759521484375, -55.251930236816406, 6.051486968994141, 7.816699504852295, -0.11428520083427429, 10.521434783935547, -7.149357795715332, 1.389034628868103, 
405, 1277294998, 97.68626403808594, -39.03431701660156, -55.32052993774414, 6.031250953674316, 7.822611331939697, -0.08580126613378525, 10.450250625610352, -7.079660415649414, 1.4285829067230225, 
406, 1277303331, 97.76350402832031, -39.02202606201172, -55.37274932861328, 6.04623556137085, 7.815093517303467, -0.09431736171245575, 10.220260620117188, -6.905534267425537, 1.4869320392608643, 
407, 1277311664, 97.87553405761719, -39.02239990234375, -55.437129974365234, 6.035894870758057, 7.8290886878967285, -0.08352063596248627, 10.07705020904541, -6.680641174316406, 1.4987914562225342, 
408, 1277319997, 97.9477310180664, -39.00969314575195, -55.486881256103516, 6.038483619689941, 7.820150852203369, -0.07074481248855591, 9.908740997314453, -6.636200904846191, 1.4084502458572388, 
409, 1277328330, 98.05437469482422, -39.00884246826172, -55.54810333251953, 6.040787696838379, 7.83313512802124, -0.07581410557031631, 9.682129859924316, -6.410256385803223, 1.334194302558899, 
410, 1277336663, 98.1192626953125, -38.99620819091797, -55.59334182739258, 6.044624328613281, 7.826314926147461, -0.08367053419351578, 9.439332962036133, -6.227935314178467, 1.370694637298584, 
411, 1277344996, 98.22074127197266, -38.99580383300781, -55.65055465698242, 6.031185626983643, 7.852779865264893, -0.09112827479839325, 9.37752628326416, -6.034138202667236, 1.3558640480041504, 
412, 1277353329, 98.28099060058594, -38.98219299316406, -55.692745208740234, 6.040451526641846, 7.853628158569336, -0.08989961445331573, 9.161188125610352, -5.994691848754883, 1.2246166467666626, 
413, 1277361662, 98.37699127197266, -38.98183822631836, -55.746761322021484, 6.046604633331299, 7.853087425231934, -0.05062706023454666, 8.970952033996582, -5.739805221557617, 1.3378828763961792, 
414, 1277369995, 98.43081665039062, -38.968505859375, -55.784324645996094, 6.023529529571533, 7.860483169555664, -0.06051739305257797, 8.733558654785156, -5.66152811050415, 1.2196987867355347, 
415, 1277378328, 98.52250671386719, -38.967411041259766, -55.835227966308594, 6.046528339385986, 7.841372013092041, -0.06651198118925095, 8.699389457702637, -5.46785831451416, 1.2241045236587524, 
416, 1277386661, 98.56880950927734, -38.95563888549805, -55.86940002441406, 6.041491985321045, 7.807114124298096, -0.09235547482967377, 8.231826782226562, -5.243375301361084, 1.348026156425476, 
417, 1277394994, 98.65316009521484, -38.95566177368164, -55.915924072265625, 6.037220001220703, 7.817478656768799, -0.056993402540683746, 8.161898612976074, -5.044992446899414, 1.3125245571136475, 
418, 1277403327, 98.69328308105469, -38.94435119628906, -55.94516372680664, 6.055665969848633, 7.807833194732666, -0.07660158723592758, 7.877709865570068, -4.850708961486816, 1.346745491027832, 
419, 1277411660, 98.77049255371094, -38.9447135925293, -55.98759078979492, 6.0666422843933105, 7.813096523284912, -0.07701300829648972, 7.6246161460876465, -4.663622856140137, 1.3084264993667603, 
420, 1277419993, 98.80382537841797, -38.93368911743164, -56.01655578613281, 6.053908824920654, 7.812215805053711, -0.0707228034734726, 7.334251880645752, -4.613674640655518, 1.3386000394821167, 
421, 1277428326, 98.87396240234375, -38.93465042114258, -56.05466079711914, 6.043248653411865, 7.818133354187012, -0.052334170788526535, 7.114814281463623, -4.253384113311768, 1.328251838684082, 
422, 1277436659, 98.90054321289062, -38.924251556396484, -56.07823944091797, 6.053619384765625, 7.8266496658325195, -0.0887998715043068, 6.8989386558532715, -4.238246917724609, 1.354634404182434, 
423, 1277444992, 98.96485137939453, -38.924591064453125, -56.11403274536133, 6.062838554382324, 7.845346450805664, -0.03960704803466797, 6.60150671005249, -4.0538249015808105, 1.231711983680725, 
424, 1277453325, 98.98197937011719, -38.91545867919922, -56.129554748535156, 6.072358131408691, 7.8462018966674805, -0.061799708753824234, 6.340087413787842, -3.609084367752075, 1.4050946235656738, 
425, 1277461658, 99.03766632080078, -38.91762161254883, -56.15962600708008, 6.049786567687988, 7.80695104598999, -0.04273642972111702, 6.011110305786133, -3.495805025100708, 1.373396873474121, 
426, 1277469991, 99.04740905761719, -38.907798767089844, -56.175254821777344, 6.0398101806640625, 7.81850528717041, -0.050111234188079834, 5.693173408508301, -3.420409679412842, 1.2846050262451172, 
427, 1277478324, 99.09485626220703, -38.90913772583008, -56.20100402832031, 6.044732570648193, 7.83267068862915, -0.05818792060017586, 5.361186981201172, -3.1139352321624756, 1.2189557552337646, 
428, 1277486657, 99.09540557861328, -38.89976119995117, -56.2108154296875, 6.047365188598633, 7.817816257476807, -0.07458162307739258, 5.155659198760986, -2.819781541824341, 1.2355538606643677, 
429, 1277494990, 99.13510131835938, -38.901832580566406, -56.23237609863281, 6.040916442871094, 7.784914970397949, -0.048452649265527725, 4.757946491241455, -2.715557098388672, 1.2498209476470947, 
430, 1277503323, 99.12721252441406, -38.89258575439453, -56.23597717285156, 6.025075435638428, 7.803194046020508, -0.031437572091817856, 4.467583656311035, -2.5083889961242676, 1.197772741317749, 
431, 1277511656, 99.159912109375, -38.89534378051758, -56.254066467285156, 6.033857345581055, 7.8145270347595215, -0.03305226191878319, 4.190130233764648, -2.3875157833099365, 1.284246563911438, 
432, 1277519989, 99.14328002929688, -38.88719940185547, -56.253997802734375, 6.0345778465271, 7.810107231140137, -0.05838470906019211, 3.8444664478302, -2.064161777496338, 1.251895785331726, 
433, 1277528322, 99.16719055175781, -38.89059066772461, -56.26744079589844, 6.042496204376221, 7.837438583374023, -0.04964934289455414, 3.5004160404205322, -1.949691653251648, 1.29421067237854, 
434, 1277536655, 99.142578125, -38.88414764404297, -56.2628173828125, 6.045917987823486, 7.805879592895508, -0.060931988060474396, 3.249767541885376, -1.6804730892181396, 1.3917622566223145, 
435, 1277544988, 99.15769958496094, -38.88890075683594, -56.26918411254883, 6.026151657104492, 7.804885387420654, -0.042765144258737564, 2.9885919094085693, -1.2714009284973145, 1.354685664176941, 
436, 1277553321, 99.12425231933594, -38.882164001464844, -56.25922393798828, 6.026886463165283, 7.825671672821045, -0.05725879967212677, 2.646206855773926, -1.2203519344329834, 1.2727969884872437, 
437, 1277561654, 99.13130950927734, -38.88697052001953, -56.261505126953125, 6.045470714569092, 7.842458248138428, -0.05446632206439972, 2.3368637561798096, -0.8956913948059082, 1.3071199655532837, 
438, 1277569987, 99.0894546508789, -38.88072967529297, -56.246124267578125, 6.034362316131592, 7.814227104187012, -0.04853707179427147, 2.1850223541259766, -0.6256661415100098, 1.232890009880066, 
439, 1277578320, 99.0885238647461, -38.885292053222656, -56.24273681640625, 6.04888916015625, 7.818770885467529, -0.028430718928575516, 1.8223373889923096, -0.3815496265888214, 1.1957108974456787, 
440, 1277586653, 99.03758239746094, -38.87971878051758, -56.222442626953125, 6.0616021156311035, 7.818102836608887, -0.05965856835246086, 1.5153253078460693, -0.17976069450378418, 1.241662859916687, 
441, 1277594986, 99.02857208251953, -38.884483337402344, -56.214698791503906, 6.050504207611084, 7.79751443862915, -0.04698702692985535, 1.1908824443817139, 0.021925784647464752, 1.1610163450241089, 
442, 1277603319, 98.96837615966797, -38.87972640991211, -56.18849182128906, 6.054101943969727, 7.811154842376709, -0.05655752867460251, 0.9165797829627991, 0.38221561908721924, 1.2458508014678955, 
443, 1277611652, 98.9511489868164, -38.88587188720703, -56.17551803588867, 6.045590877532959, 7.825211048126221, -0.059869639575481415, 0.6126668453216553, 0.5255016088485718, 1.2530739307403564, 
444, 1277619985, 98.88438415527344, -38.881370544433594, -56.144222259521484, 6.055961608886719, 7.841890811920166, -0.06259452551603317, 0.5213265419006348, 0.7941693663597107, 1.21104097366333, 
445, 1277628318, 98.85929870605469, -38.88785171508789, -56.124576568603516, 6.048801422119141, 7.842756271362305, -0.04435477778315544, 0.18360285460948944, 1.144572138786316, 1.2037667036056519, 
446, 1277636651, 98.7840576171875, -38.883514404296875, -56.08805847167969, 6.037510395050049, 7.83174991607666, -0.05693504586815834, -0.0725267082452774, 1.2412657737731934, 1.1641157865524292, 
447, 1277644984, 98.75286865234375, -38.89067077636719, -56.06634521484375, 6.047384262084961, 7.855959892272949, -0.06584911048412323, -0.3801024258136749, 1.3423138856887817, 1.2604252099990845, 
448, 1277653317, 98.67041778564453, -38.887020111083984, -56.02528381347656, 6.035635948181152, 7.845062732696533, -0.055557359009981155, -0.5337365865707397, 1.679089903831482, 1.1868611574172974, 
449, 1277661650, 98.63133239746094, -38.89336395263672, -55.99808883666992, 6.029576301574707, 7.849153995513916, -0.08436458557844162, -0.9040160775184631, 1.833210825920105, 1.094342589378357, 
450, 1277669983, 98.54071044921875, -38.8889274597168, -55.95077133178711, 6.051555156707764, 7.839800834655762, -0.10004805773496628, -1.1264243125915527, 2.0779035091400146, 1.041756510734558, 
451, 1277678316, 98.49607849121094, -38.8961296081543, -55.919681549072266, 6.056166648864746, 7.836231231689453, -0.12564590573310852, -1.2623847723007202, 2.203669309616089, 1.1537930965423584, 
452, 1277686649, 98.40069580078125, -38.892555236816406, -55.870635986328125, 6.033666133880615, 7.8106584548950195, -0.14514978229999542, -1.5053614377975464, 2.274902820587158, 1.1249003410339355, 
453, 1277694982, 98.3507080078125, -38.90053939819336, -55.8371696472168, 6.044034957885742, 7.793662071228027, -0.11559601128101349, -1.7169346809387207, 2.4356062412261963, 1.225897192955017, 
454, 1277703315, 98.25033569335938, -38.89805603027344, -55.78591537475586, 6.0366597175598145, 7.804947376251221, -0.11739342659711838, -1.9496147632598877, 2.4364774227142334, 1.2440322637557983, 
455, 1277711648, 98.19483947753906, -38.90593338012695, -55.74896240234375, 6.026522159576416, 7.821107864379883, -0.1295078694820404, -2.100149393081665, 2.7475876808166504, 1.1772557497024536, 
456, 1277719981, 98.0885238647461, -38.90309143066406, -55.69328308105469, 6.027740478515625, 7.829856872558594, -0.14945729076862335, -2.387874126434326, 2.7349085807800293, 1.1762312650680542, 
457, 1277728314, 98.0278091430664, -38.9113883972168, -55.65480041503906, 6.038074016571045, 7.858078479766846, -0.12700499594211578, -2.5985379219055176, 2.891244649887085, 1.2212225198745728, 
458, 1277736647, 97.91477966308594, -38.90892791748047, -55.59651184082031, 6.00010871887207, 7.843568325042725, -0.09838192164897919, -2.85196590423584, 3.119006872177124, 1.1798555850982666, 
459, 1277744980, 97.84797668457031, -38.91625213623047, -55.55411911010742, 6.025091171264648, 7.8526811599731445, -0.09038658440113068, -3.0237221717834473, 3.232900857925415, 1.071930170059204, 
460, 1277753313, 97.73002624511719, -38.91267776489258, -55.4915771484375, 6.034286022186279, 7.858128070831299, -0.11403782665729523, -3.165010452270508, 3.4073338508605957, 1.0282834768295288, 
461, 1277761646, 97.65763092041016, -38.91907501220703, -55.44570541381836, 6.034740447998047, 7.837674140930176, -0.09636849164962769, -3.419820785522461, 3.5334584712982178, 0.9344073534011841, 
462, 1277769979, 97.53514099121094, -38.91558074951172, -55.37696075439453, 6.0340166091918945, 7.826054096221924, -0.15454944968223572, -3.4578704833984375, 3.682135820388794, 1.0282193422317505, 
463, 1277778312, 97.45881652832031, -38.921974182128906, -55.3282585144043, 6.049695014953613, 7.827273368835449, -0.13684993982315063, -3.6711089611053467, 3.7927255630493164, 0.918628990650177, 
464, 1277786645, 97.33007049560547, -38.91842269897461, -55.256935119628906, 6.04542350769043, 7.8257293701171875, -0.11249195039272308, -3.881337881088257, 4.0636725425720215, 0.9896315336227417, 
465, 1277794978, 97.24909210205078, -38.92490768432617, -55.2039680480957, 6.070438861846924, 7.806894779205322, -0.1359187662601471, -3.8935046195983887, 4.184674263000488, 0.8996230959892273, 
466, 1277803311, 97.11866760253906, -38.921958923339844, -55.13398361206055, 6.064128875732422, 7.819033145904541, -0.12445101886987686, -3.982898473739624, 4.17998743057251, 1.0707519054412842, 
467, 1277811644, 97.0341567993164, -38.929405212402344, -55.07837677001953, 6.054349422454834, 7.813675403594971, -0.1416211724281311, -4.103541374206543, 4.43661642074585, 1.0032328367233276, 
468, 1277819977, 96.90005493164062, -38.9266357421875, -55.003108978271484, 6.069239616394043, 7.822133541107178, -0.15106675028800964, -4.129847526550293, 4.540661334991455, 1.0791789293289185, 
469, 1277828310, 96.81184387207031, -38.93454360961914, -54.9454460144043, 6.049832344055176, 7.847263813018799, -0.13671189546585083, -4.383838176727295, 4.630669593811035, 1.0612746477127075, 
470, 1277836643, 96.67393493652344, -38.9311637878418, -54.863712310791016, 6.056032657623291, 7.841221809387207, -0.08245580643415451, -4.333787441253662, 4.8293585777282715, 1.0017470121383667, 
471, 1277844976, 96.58452606201172, -38.938720703125, -54.80440139770508, 6.05899715423584, 7.876522541046143, -0.12133906036615372, -4.392341613769531, 4.770420074462891, 1.0269259214401245, 
472, 1277853309, 96.44548797607422, -38.934818267822266, -54.72335433959961, 6.042221546173096, 7.8748979568481445, -0.16857241094112396, -4.42474365234375, 4.874235153198242, 0.9624036550521851, 
473, 1277861642, 96.3538589477539, -38.941707611083984, -54.66194152832031, 6.032571315765381, 7.8688483238220215, -0.1677742749452591, -4.489291667938232, 4.953895092010498, 0.954616904258728, 
474, 1277869975, 96.21282196044922, -38.936859130859375, -54.58025360107422, 6.0746307373046875, 7.839944839477539, -0.1320563107728958, -4.572793960571289, 4.981199741363525, 0.8704739809036255, 
475, 1277878308, 96.11898803710938, -38.94325256347656, -54.51681900024414, 6.051663875579834, 7.854375839233398, -0.1357971727848053, -4.5902886390686035, 5.129737377166748, 0.8987266421318054, 
476, 1277886641, 95.97624206542969, -38.938358306884766, -54.43056106567383, 6.058602809906006, 7.8110671043396, -0.14829786121845245, -4.644078254699707, 5.156965255737305, 0.887225866317749, 
477, 1277894974, 95.88088989257812, -38.94464111328125, -54.365333557128906, 6.026568412780762, 7.785670757293701, -0.16174298524856567, -4.6286845207214355, 5.288365840911865, 0.8974458575248718, 
478, 1277903307, 95.73824310302734, -38.940494537353516, -54.28008270263672, 6.043360233306885, 7.797204494476318, -0.17253924906253815, -4.563111782073975, 5.26971960067749, 0.9952667951583862, 
479, 1277911640, 95.64161682128906, -38.947261810302734, -54.21427536010742, 6.038788318634033, 7.794834136962891, -0.1634903997182846, -4.724353313446045, 5.3444366455078125, 0.9795141220092773, 
480, 1277919973, 95.49839782714844, -38.94253158569336, -54.12488555908203, 6.04974365234375, 7.805015563964844, -0.15949800610542297, -4.558526992797852, 5.372867584228516, 0.9521580338478088, 
481, 1277928306, 95.40336608886719, -38.949466705322266, -54.059913635253906, 6.048984527587891, 7.814248561859131, -0.17664982378482819, -4.589238166809082, 5.262213706970215, 1.0365055799484253, 
482, 1277936639, 95.26107788085938, -38.94469451904297, -53.97385787963867, 6.051028251647949, 7.819996356964111, -0.1990685611963272, -4.5791215896606445, 5.242798805236816, 0.9937810897827148, 
483, 1277944972, 95.16560363769531, -38.950592041015625, -53.908592224121094, 6.027934551239014, 7.839437484741211, -0.17767353355884552, -4.607271194458008, 5.274662971496582, 0.9369175434112549, 
484, 1277953305, 95.02435302734375, -38.945613861083984, -53.8252067565918, 6.030036926269531, 7.8640055656433105, -0.20100067555904388, -4.457094669342041, 5.273842811584473, 0.9991087913513184, 
485, 1277961638, 94.93045806884766, -38.95083999633789, -53.761016845703125, 6.058090686798096, 7.844331741333008, -0.1982821226119995, -4.484757900238037, 5.1639323234558105, 0.8956273198127747, 
486, 1277969971, 94.79145812988281, -38.9444465637207, -53.67561721801758, 6.044878959655762, 7.849381446838379, -0.20703841745853424, -4.387513160705566, 5.048398971557617, 0.8846259713172913, 
487, 1277978304, 94.69988250732422, -38.9494514465332, -53.614402770996094, 6.041626930236816, 7.8440260887146, -0.2166747748851776, -4.4275102615356445, 4.880561351776123, 0.9201400279998779, 
488, 1277986637, 94.56299591064453, -38.94296646118164, -53.53267288208008, 6.039154529571533, 7.832483291625977, -0.2135460525751114, -4.426408767700195, 4.733126163482666, 0.9355343580245972, 
489, 1277994970, 94.47335052490234, -38.94743347167969, -53.47305679321289, 6.034217357635498, 7.80402946472168, -0.23326802253723145, -4.306328296661377, 4.722265720367432, 0.8949869871139526, 
490, 1278003303, 94.34059143066406, -38.94074249267578, -53.39725112915039, 6.042311191558838, 7.810429096221924, -0.20202334225177765, -4.168652534484863, 4.493377685546875, 0.9587152600288391, 
491, 1278011636, 94.25291442871094, -38.94544219970703, -53.339881896972656, 6.048700332641602, 7.810550689697266, -0.23233963549137115, -4.226925849914551, 4.511205196380615, 0.9617634415626526, 
492, 1278019969, 94.12162780761719, -38.93833923339844, -53.26348876953125, 6.042861461639404, 7.789812088012695, -0.2003871649503708, -4.139760494232178, 4.364512920379639, 0.9485464692115784, 
493, 1278028302, 94.03768920898438, -38.9421272277832, -53.208797454833984, 6.043045520782471, 7.779874801635742, -0.19186429679393768, -3.9723451137542725, 4.250425815582275, 0.8949613571166992, 
494, 1278036635, 93.91075134277344, -38.935638427734375, -53.13479995727539, 6.038644313812256, 7.78619384765625, -0.20926710963249207, -3.919938325881958, 4.047356605529785, 1.0679855346679688, 
495, 1278044968, 93.82960510253906, -38.94002151489258, -53.08218765258789, 6.041146278381348, 7.811313152313232, -0.18115393817424774, -3.7856945991516113, 4.055809020996094, 1.0012091398239136, 
496, 1278053301, 93.70649719238281, -38.93299865722656, -53.00895309448242, 6.062212944030762, 7.824822425842285, -0.1932706981897354, -3.614616870880127, 3.9141881465911865, 1.033687949180603, 
497, 1278061634, 93.62972259521484, -38.93781280517578, -52.95943832397461, 6.047994613647461, 7.818362236022949, -0.20499610900878906, -3.487032175064087, 3.764857053756714, 1.094496250152588, 
498, 1278069967, 93.51057434082031, -38.93063735961914, -52.88805389404297, 6.052043914794922, 7.839886665344238, -0.21295788884162903, -3.375277280807495, 3.686400890350342, 1.0530524253845215, 
499, 1278078300, 93.43660736083984, -38.935123443603516, -52.8403434753418, 6.022025108337402, 7.825150489807129, -0.18960747122764587, -3.2770981788635254, 3.5874016284942627, 1.0811768770217896, 
500, 1278086633, 93.32067108154297, -38.92784881591797, -52.768333435058594, 6.02646541595459, 7.840810775756836, -0.2061115801334381, -3.134427070617676, 3.567474126815796, 1.0688819885253906, 
501, 1278094966, 93.25072479248047, -38.931861877441406, -52.72199249267578, 6.03008508682251, 7.820497512817383, -0.19291642308235168, -2.892308235168457, 3.4526195526123047, 1.0509008169174194, 
502, 1278103299, 93.139892578125, -38.92335891723633, -52.65520095825195, 6.051742076873779, 7.81580114364624, -0.18138490617275238, -2.765953540802002, 3.3244075775146484, 0.9600856304168701, 
503, 1278111632, 93.07376861572266, -38.926387786865234, -52.61051559448242, 6.0305914878845215, 7.800745010375977, -0.21641165018081665, -2.5474894046783447, 3.287062406539917, 0.9572423696517944, 
504, 1278119965, 92.96802520751953, -38.91824722290039, -52.546546936035156, 6.05138635635376, 7.784371376037598, -0.22067487239837646, -2.2769386768341064, 3.247910261154175, 1.0278990268707275, 
505, 1278128298, 92.9083480834961, -38.921600341796875, -52.50482177734375, 6.054781436920166, 7.803532600402832, -0.196438729763031, -1.9902900457382202, 3.0072903633117676, 1.0278480052947998, 
506, 1278136631, 92.80970764160156, -38.91429901123047, -52.445194244384766, 6.0410261154174805, 7.788940906524658, -0.23560558259487152, -1.8342225551605225, 2.820741891860962, 1.1626299619674683, 
507, 1278144964, 92.75526428222656, -38.91801452636719, -52.407283782958984, 6.04962682723999, 7.795152187347412, -0.2601279318332672, -1.64357590675354, 2.651944160461426, 1.1029233932495117, 
508, 1278153297, 92.66333770751953, -38.909908294677734, -52.35329818725586, 6.048282623291016, 7.788659572601318, -0.24083203077316284, -1.373268723487854, 2.4608874320983887, 1.096161127090454, 
509, 1278161630, 92.61491394042969, -38.913753509521484, -52.319210052490234, 6.008925437927246, 7.8061981201171875, -0.25463926792144775, -1.1994248628616333, 2.2964184284210205, 1.1478251218795776, 
510, 1278169963, 92.52971649169922, -38.90570831298828, -52.268829345703125, 6.0207319259643555, 7.808070182800293, -0.2436881959438324, -0.9497501850128174, 2.0686185359954834, 1.130112886428833, 
511, 1278178296, 92.48748779296875, -38.90951156616211, -52.238731384277344, 6.015407085418701, 7.813128471374512, -0.24141624569892883, -0.7480636835098267, 1.9159575700759888, 1.1672277450561523, 
512, 1278186629, 92.40959930419922, -38.901206970214844, -52.193763732910156, 6.001112461090088, 7.813292980194092, -0.2695332169532776, -0.3656303882598877, 1.7883602380752563, 1.128409504890442, 
513, 1278194962, 92.37571716308594, -38.903995513916016, -52.169193267822266, 6.026108741760254, 7.806848049163818, -0.2501721978187561, -0.15410804748535156, 1.394490122795105, 1.0782824754714966, 
514, 1278203295, 92.30628967285156, -38.89577865600586, -52.127689361572266, 6.026963233947754, 7.8223347663879395, -0.2739230692386627, 0.14951029419898987, 1.2456203699111938, 1.160709023475647, 
515, 1278211628, 92.27802276611328, -38.89863967895508, -52.10629653930664, 6.0000834465026855, 7.813236236572266, -0.23612965643405914, 0.28631591796875, 1.0929594039916992, 1.1037687063217163, 
516, 1278219961, 92.21501159667969, -38.889625549316406, -52.067054748535156, 6.004368305206299, 7.781091690063477, -0.24544981122016907, 0.5450837016105652, 0.8604974746704102, 1.0795247554779053, 
517, 1278228294, 92.19406127929688, -38.89250183105469, -52.049903869628906, 6.027027606964111, 7.784459590911865, -0.25849616527557373, 0.8492143154144287, 0.6924296021461487, 1.1278972625732422, 
518, 1278236627, 92.13812255859375, -38.88322067260742, -52.020381927490234, 6.007386684417725, 7.767451286315918, -0.2467305213212967, 1.0024386644363403, 0.45910951495170593, 1.0815098285675049, 
519, 1278244960, 92.12322998046875, -38.88536834716797, -52.007728576660156, 6.017221927642822, 7.7601542472839355, -0.24700158834457397, 1.2485402822494507, 0.26741260290145874, 1.061428189277649, 
520, 1278253293, 92.07553100585938, -38.87590408325195, -51.98090362548828, 6.032116889953613, 7.751182556152344, -0.24373847246170044, 1.5356760025024414, -0.02908496744930744, 1.0683954954147339, 
521, 1278261626, 92.06893157958984, -38.87855911254883, -51.973899841308594, 6.01845121383667, 7.775224208831787, -0.23445545136928558, 1.8215051889419556, -0.2623538076877594, 1.1455711126327515, 
522, 1278269959, 92.02896881103516, -38.8699836730957, -51.95307922363281, 6.027854919433594, 7.770197868347168, -0.24242280423641205, 2.035460948944092, -0.4758484959602356, 1.1929062604904175, 
523, 1278278292, 92.02912139892578, -38.87334060668945, -51.951316833496094, 6.001772880554199, 7.785128593444824, -0.2588292956352234, 2.248648166656494, -0.7492547631263733, 1.2508713006973267, 
524, 1278286625, 91.99699401855469, -38.864532470703125, -51.93535232543945, 6.03352689743042, 7.795006275177002, -0.2905031740665436, 2.5521256923675537, -0.9243537187576294, 1.1744383573532104, 
525, 1278294958, 92.00353240966797, -38.867759704589844, -51.9377555847168, 6.019270420074463, 7.790843963623047, -0.2591420114040375, 2.7062973976135254, -1.1411526203155518, 1.2519981861114502, 
526, 1278303291, 91.97926330566406, -38.859130859375, -51.92574691772461, 6.01107931137085, 7.782821178436279, -0.25637269020080566, 3.0628609657287598, -1.3799669742584229, 1.205290675163269, 
527, 1278311624, 91.99352264404297, -38.86201477050781, -51.932559967041016, 6.029909610748291, 7.783148765563965, -0.2568437159061432, 3.308821201324463, -1.5567946434020996, 1.2282793521881104, 
528, 1278319957, 91.97738647460938, -38.85304641723633, -51.92622756958008, 6.039465427398682, 7.787855625152588, -0.2585464119911194, 3.5468032360076904, -1.912602186203003, 1.1793307065963745, 
529, 1278328290, 91.9991683959961, -38.85614776611328, -51.939266204833984, 6.026233673095703, 7.801063060760498, -0.2799230217933655, 3.747875213623047, -2.1441292762756348, 1.2778173685073853, 
530, 1278336623, 91.98993682861328, -38.848697662353516, -51.93550109863281, 6.032723426818848, 7.767160892486572, -0.27087435126304626, 4.060086250305176, -2.2241480350494385, 1.3614733219146729, 
531, 1278344956, 92.01898956298828, -38.85175704956055, -51.951900482177734, 6.046691417694092, 7.778788089752197, -0.2599489390850067, 4.373784065246582, -2.45979905128479, 1.285373568534851, 
532, 1278353289, 92.01736450195312, -38.84423065185547, -51.95551300048828, 6.052586078643799, 7.781190872192383, -0.24367377161979675, 4.504698753356934, -2.727135181427002, 1.3741782903671265, 
533, 1278361622, 92.05374908447266, -38.84798812866211, -51.97707748413086, 6.019307613372803, 7.7778120040893555, -0.2637959122657776, 4.872800827026367, -2.941013813018799, 1.3901101350784302, 
534, 1278369955, 92.06131744384766, -38.840110778808594, -51.98479080200195, 6.023212432861328, 7.78490686416626, -0.2385893315076828, 5.224741458892822, -3.1346065998077393, 1.336525321006775, 
535, 1278378288, 92.10435485839844, -38.84368896484375, -52.01009750366211, 6.03581428527832, 7.783810138702393, -0.22767914831638336, 5.395715236663818, -3.291109085083008, 1.3879331350326538, 
536, 1278386621, 92.11921691894531, -38.83626174926758, -52.021888732910156, 6.0146965980529785, 7.7963948249816895, -0.2565956711769104, 5.768223762512207, -3.478067398071289, 1.3970004320144653, 
537, 1278394954, 92.17024993896484, -38.8404541015625, -52.05164337158203, 6.0204548835754395, 7.800858497619629, -0.24952691793441772, 6.026722431182861, -3.711106538772583, 1.4813226461410522, 
538, 1278403287, 92.19083404541016, -38.83219528198242, -52.070255279541016, 6.021559715270996, 7.800898551940918, -0.21094352006912231, 6.195289134979248, -3.7313153743743896, 1.3384974002838135, 
539, 1278411620, 92.2469253540039, -38.835445404052734, -52.10248947143555, 6.0059099197387695, 7.819054126739502, -0.24654127657413483, 6.454300880432129, -3.944733142852783, 1.3823235034942627, 
540, 1278419953, 92.27481079101562, -38.827938079833984, -52.12250900268555, 6.019905090332031, 7.795431137084961, -0.2365403175354004, 6.705859184265137, -4.127799034118652, 1.4144439697265625, 
541, 1278428286, 92.3375015258789, -38.8311653137207, -52.15807342529297, 6.009012699127197, 7.79895544052124, -0.24766597151756287, 7.000548839569092, -4.2594804763793945, 1.3994592428207397, 
542, 1278436619, 92.37171173095703, -38.82311248779297, -52.18143844604492, 6.004237651824951, 7.82161808013916, -0.2211935818195343, 7.104748249053955, -4.519183158874512, 1.357272744178772, 
543, 1278444952, 92.43994903564453, -38.82611846923828, -52.22138595581055, 6.012748718261719, 7.80365514755249, -0.23590487241744995, 7.342116355895996, -4.672126293182373, 1.3997666835784912, 
544, 1278453285, 92.48011779785156, -38.81876754760742, -52.247291564941406, 6.012485980987549, 7.806948184967041, -0.21717950701713562, 7.555406093597412, -4.7879791259765625, 1.4505085945129395, 
545, 1278461618, 92.55463409423828, -38.82202911376953, -52.29088592529297, 6.004448890686035, 7.801214218139648, -0.22774890065193176, 7.825302600860596, -5.012001991271973, 1.4572196006774902, 
546, 1278469951, 92.60224914550781, -38.813934326171875, -52.32468795776367, 6.034218788146973, 7.794412136077881, -0.23033761978149414, 8.102755546569824, -5.170783042907715, 1.3953611850738525, 
547, 1278478284, 92.68275451660156, -38.817535400390625, -52.37226867675781, 6.023265838623047, 7.802109718322754, -0.21445277333259583, 8.251779556274414, -5.380385875701904, 1.5286576747894287, 
548, 1278486617, 92.73701477050781, -38.809532165527344, -52.4079475402832, 6.014392375946045, 7.814459800720215, -0.20227737724781036, 8.518321990966797, -5.598413944244385, 1.4172102212905884, 
549, 1278494950, 92.82246398925781, -38.81147766113281, -52.45841598510742, 6.0210723876953125, 7.801910877227783, -0.20693376660346985, 8.636429786682129, -5.663346767425537, 1.352662444114685, 
550, 1278503283, 92.88220977783203, -38.803226470947266, -52.49888229370117, 6.034117221832275, 7.812254905700684, -0.19638831913471222, 8.885656356811523, -5.910703182220459, 1.4154683351516724, 
551, 1278511616, 92.972412109375, -38.805877685546875, -52.55233383178711, 6.004613876342773, 7.811802387237549, -0.19031232595443726, 8.989599227905273, -5.939699649810791, 1.4664409160614014, 
552, 1278519949, 93.03668212890625, -38.797245025634766, -52.59623718261719, 6.043762683868408, 7.818368434906006, -0.19233891367912292, 9.198431015014648, -6.1651291847229, 1.3929535150527954, 
553, 1278528282, 93.13289642333984, -38.79883575439453, -52.65464401245117, 6.03074312210083, 7.813669204711914, -0.25141236186027527, 9.34238338470459, -6.407055377960205, 1.3822466135025024, 
554, 1278536615, 93.20188903808594, -38.78913116455078, -52.70200729370117, 6.023595333099365, 7.824470043182373, -0.2068461775779724, 9.456263542175293, -6.5179901123046875, 1.2860652208328247, 
555, 1278544948, 93.30231475830078, -38.79167556762695, -52.76433563232422, 6.040445804595947, 7.815758228302002, -0.21032510697841644, 9.559771537780762, -6.770598411560059, 1.5352405309677124, 
556, 1278553281, 93.37481689453125, -38.783172607421875, -52.814727783203125, 6.03275203704834, 7.81275749206543, -0.20813217759132385, 9.633028030395508, -6.7865309715271, 1.4518918991088867, 
557, 1278561614, 93.47746276855469, -38.78515625, -52.87845993041992, 6.056280612945557, 7.803282737731934, -0.18604828417301178, 9.727404594421387, -6.904010772705078, 1.4957562685012817, 
558, 1278569947, 93.55335235595703, -38.77723693847656, -52.93234634399414, 6.035432815551758, 7.805320739746094, -0.22378495335578918, 9.873966217041016, -6.955135822296143, 1.5470613241195679, 
559, 1278578280, 93.65898132324219, -38.77987289428711, -52.99721908569336, 6.04608678817749, 7.813364505767822, -0.20506951212882996, 10.007777214050293, -7.003470420837402, 1.6020808219909668, 
560, 1278586613, 93.73825073242188, -38.771888732910156, -53.05432891845703, 6.053617477416992, 7.805307865142822, -0.19696417450904846, 10.037117958068848, -7.221485614776611, 1.5682059526443481, 
561, 1278594946, 93.8469467163086, -38.77422332763672, -53.12230682373047, 6.057596683502197, 7.7935004234313965, -0.1832933872938156, 10.15028190612793, -7.297305107116699, 1.6085230112075806, 
562, 1278603279, 93.92877197265625, -38.76617431640625, -53.18058395385742, 6.0589213371276855, 7.806490421295166, -0.20367488265037537, 10.231863021850586, -7.345587730407715, 1.5739693641662598, 
563, 1278611612, 94.03932189941406, -38.76852035522461, -53.25077819824219, 6.036559581756592, 7.789896488189697, -0.18875232338905334, 10.211628913879395, -7.502985954284668, 1.644920825958252, 
564, 1278619945, 94.12276458740234, -38.76040267944336, -53.3112678527832, 6.066306114196777, 7.789499282836914, -0.1750195026397705, 10.335805892944336, -7.440436840057373, 1.5882364511489868, 
565, 1278628278, 94.23512268066406, -38.761234283447266, -53.38187026977539, 6.055276393890381, 7.833535671234131, -0.1604127734899521, 10.404836654663086, -7.553293704986572, 1.4940530061721802, 
566, 1278636611, 94.3214340209961, -38.75294494628906, -53.44332504272461, 6.038914203643799, 7.837960720062256, -0.16422145068645477, 10.523918151855469, -7.625295162200928, 1.5866997241973877, 
567, 1278644944, 94.43517303466797, -38.75391387939453, -53.51471710205078, 6.032474994659424, 7.853895664215088, -0.1906297206878662, 10.515849113464355, -7.624271392822266, 1.5395182371139526, 
568, 1278653277, 94.52238464355469, -38.74501419067383, -53.57441329956055, 6.04972505569458, 7.837013244628906, -0.14197997748851776, 10.686054229736328, -7.5591840744018555, 1.5187193155288696, 
569, 1278661610, 94.63723754882812, -38.74489212036133, -53.646121978759766, 6.028808116912842, 7.85576868057251, -0.1824941635131836, 10.629984855651855, -7.665251731872559, 1.4391870498657227, 
570, 1278669943, 94.72378540039062, -38.73630905151367, -53.708824157714844, 6.029757022857666, 7.850468635559082, -0.15768058598041534, 10.57619571685791, -7.587437629699707, 1.5802192687988281, 
571, 1278678276, 94.83856964111328, -38.737457275390625, -53.780330657958984, 6.039027690887451, 7.812108039855957, -0.13763464987277985, 10.646480560302734, -7.631799697875977, 1.6157972812652588, 
572, 1278686609, 94.92631530761719, -38.72734451293945, -53.84282302856445, 6.051524639129639, 7.827802658081055, -0.11696920543909073, 10.707082748413086, -7.623603820800781, 1.409474492073059, 
573, 1278694942, 95.04144287109375, -38.72710037231445, -53.91354751586914, 6.043208599090576, 7.8347907066345215, -0.1483890563249588, 10.752755165100098, -7.5744500160217285, 1.4709744453430176, 
574, 1278703275, 95.1288070678711, -38.71744155883789, -53.97592544555664, 6.032620429992676, 7.824110984802246, -0.15089264512062073, 10.727216720581055, -7.536618709564209, 1.4761484861373901, 
575, 1278711608, 95.24404907226562, -38.71767044067383, -54.04706573486328, 6.046323299407959, 7.812443733215332, -0.1376173496246338, 10.744250297546387, -7.605366230010986, 1.5509932041168213, 
576, 1278719941, 95.32940673828125, -38.708580017089844, -54.10624694824219, 6.0391926765441895, 7.8311638832092285, -0.1436322182416916, 10.633342742919922, -7.36131477355957, 1.5342161655426025, 
577, 1278728274, 95.44355010986328, -38.70844650268555, -54.175376892089844, 6.05320930480957, 7.838938236236572, -0.14801576733589172, 10.767173767089844, -7.42373514175415, 1.5177972316741943, 
578, 1278736607, 95.52845764160156, -38.69841384887695, -54.23381805419922, 6.034448623657227, 7.828933238983154, -0.15662574768066406, 10.659417152404785, -7.28698205947876, 1.4221794605255127, 
579, 1278744940, 95.64157104492188, -38.69793701171875, -54.30164337158203, 6.046902179718018, 7.85090446472168, -0.1298827826976776, 10.750475883483887, -7.305629253387451, 1.4904669523239136, 
580, 1278753273, 95.72604370117188, -38.68839645385742, -54.3599853515625, 6.048308849334717, 7.833000659942627, -0.13377346098423004, 10.642048835754395, -7.252146244049072, 1.4911072254180908, 
581, 1278761606, 95.8376235961914, -38.688018798828125, -54.427974700927734, 6.059203624725342, 7.843061923980713, -0.1498202532529831, 10.56139087677002, -7.3197431564331055, 1.5269672870635986, 
582, 1278769939, 95.918701171875, -38.67818832397461, -54.484230041503906, 6.0381340980529785, 7.850979328155518, -0.15128229558467865, 10.424662590026855, -7.027612686157227, 1.4453603029251099, 
583, 1278778272, 96.02684020996094, -38.67701721191406, -54.549137115478516, 6.049057483673096, 7.853094100952148, -0.10396306961774826, 10.389033317565918, -7.044518947601318, 1.4264570474624634, 
584, 1278786605, 96.10526275634766, -38.666316986083984, -54.601802825927734, 6.053402900695801, 7.8519392013549805, -0.114654541015625, 10.25243091583252, -6.881277084350586, 1.331735372543335, 
585, 1278794938, 96.21039581298828, -38.664066314697266, -54.665443420410156, 6.0605244636535645, 7.83921480178833, -0.14742286503314972, 10.128790855407715, -6.941009044647217, 1.3066847324371338, 
586, 1278803271, 96.28662109375, -38.65340042114258, -54.72053146362305, 6.056024074554443, 7.846057415008545, -0.10815321654081345, 10.056584358215332, -6.820724964141846, 1.340367317199707, 
587, 1278811604, 96.38717651367188, -38.65201187133789, -54.78080368041992, 6.056252479553223, 7.824057102203369, -0.10063639283180237, 9.838813781738281, -6.6154022216796875, 1.3952076435089111, 
588, 1278819937, 96.45750427246094, -38.64187240600586, -54.83064270019531, 6.058845520019531, 7.799363136291504, -0.10027629882097244, 9.65871810913086, -6.455261707305908, 1.3691834211349487, 
589, 1278828270, 96.5542221069336, -38.64059829711914, -54.888301849365234, 6.03964900970459, 7.81026029586792, -0.10347677022218704, 9.583924293518066, -6.3719635009765625, 1.3988444805145264, 
590, 1278836603, 96.62158203125, -38.63193130493164, -54.93790817260742, 6.057083606719971, 7.8202714920043945, -0.11077237129211426, 9.527547836303711, -6.1841349601745605, 1.5217417478561401, 
591, 1278844936, 96.713623046875, -38.630714416503906, -54.99345779418945, 6.0456862449646, 7.81058406829834, -0.0923561155796051, 9.186110496520996, -6.17073917388916, 1.4010989665985107, 
592, 1278853269, 96.77734375, -38.62136459350586, -55.04023361206055, 6.045228481292725, 7.837337970733643, -0.0838998332619667, 9.172407150268555, -6.130344867706299, 1.43275785446167, 
593, 1278861602, 96.86515808105469, -38.61982345581055, -55.09284591674805, 6.046716213226318, 7.847601890563965, -0.07212479412555695, 8.905455589294434, -5.905118942260742, 1.3460792303085327, 
594, 1278869935, 96.92119598388672, -38.60963821411133, -55.13591384887695, 6.034506797790527, 7.84089469909668, -0.07269939035177231, 8.680792808532715, -5.6372199058532715, 1.2787139415740967, 
595, 1278878268, 97.00334930419922, -38.60823059082031, -55.185157775878906, 6.043271064758301, 7.843210697174072, -0.09224917739629745, 8.48607349395752, -5.58837366104126, 1.3390098810195923, 
596, 1278886601, 97.05461120605469, -38.59844970703125, -55.22484588623047, 6.033997058868408, 7.821684837341309, -0.08392660319805145, 8.311537742614746, -5.418627738952637, 1.3004348278045654, 
597, 1278894934, 97.1299819946289, -38.59720993041992, -55.2705078125, 6.048001289367676, 7.838181018829346, -0.06673002243041992, 7.9471001625061035, -5.2499589920043945, 1.3297889232635498, 
598, 1278903267, 97.17481231689453, -38.58856964111328, -55.30636978149414, 6.0522308349609375, 7.839194297790527, -0.08972027897834778, 7.81895112991333, -5.097886562347412, 1.3987936973571777, 
599, 1278911600, 97.24596405029297, -38.587432861328125, -55.348148345947266, 6.050687789916992, 7.834525108337402, -0.06958150863647461, 7.737010478973389, -4.892076015472412, 1.307606816291809, 
600, 1278919933, 97.28477478027344, -38.57880783081055, -55.37949752807617, 6.054215431213379, 7.805340766906738, -0.06735989451408386, 7.48586368560791, -4.645026206970215, 1.3423140048980713, 
601, 1278928266, 97.34872436523438, -38.57796096801758, -55.41705322265625, 6.045407772064209, 7.810309886932373, -0.05422507971525192, 7.195999622344971, -4.493940830230713, 1.3014978170394897, 
602, 1278936599, 97.38087463378906, -38.56904983520508, -55.443397521972656, 6.041650295257568, 7.803459167480469, -0.04530215635895729, 7.055261611938477, -4.2326884269714355, 1.250614881515503, 
603, 1278944932, 97.43869018554688, -38.56880569458008, -55.476810455322266, 6.060009002685547, 7.821249008178711, -0.04895183444023132, 6.776247501373291, -4.099673748016357, 1.3306341171264648, 
604, 1278953265, 97.4649429321289, -38.56123352050781, -55.49988555908203, 6.045412540435791, 7.812034606933594, -0.04849378392100334, 6.584601879119873, -3.9628946781158447, 1.3739991188049316, 
605, 1278961598, 97.51619720458984, -38.561485290527344, -55.528255462646484, 6.034231185913086, 7.83129358291626, -0.07563117891550064, 6.373538970947266, -3.625580072402954, 1.3324013948440552, 
606, 1278969931, 97.53510284423828, -38.553466796875, -55.545772552490234, 6.0517354011535645, 7.817999362945557, -0.06698362529277802, 6.1206746101379395, -3.4885690212249756, 1.2505382299423218, 
607, 1278978264, 97.58074951171875, -38.55365753173828, -55.570701599121094, 6.04032564163208, 7.842143535614014, -0.03800654038786888, 5.964402675628662, -3.3074252605438232, 1.289702296257019, 
608, 1278986597, 97.59178161621094, -38.54692840576172, -55.58478546142578, 6.042187690734863, 7.827337265014648, -0.0678282231092453, 5.517920970916748, -3.081430673599243, 1.3464634418487549, 
609, 1278994930, 97.6297378540039, -38.54763412475586, -55.60552215576172, 6.037041664123535, 7.839582920074463, -0.08432768285274506, 5.360522270202637, -2.909482717514038, 1.3035084009170532, 
610, 1279003263, 97.63316345214844, -38.5407829284668, -55.61368179321289, 6.035572528839111, 7.840112209320068, -0.08869988471269608, 5.000462055206299, -2.6343088150024414, 1.2669825553894043, 
