sep=,
PacketCounter,SampleTimeFine,Euler_X,Euler_Y,Euler_Z,Acc_X,Acc_Y,Acc_Z,Gyr_X,Gyr_Y,Gyr_Z,
0, 515691838, -128.04115295410156, -87.1540756225586, -122.20980072021484, 0, 0, 0, 0, 0, 0, 
1, 515700171, -125.76902770996094, -87.2214584350586, -124.45594024658203, 9.952179908752441, -0.4128588140010834, -0.35437318682670593, 3.428197145462036, 15.421219825744629, 1.4899674654006958, 
2, 515708504, -124.07543182373047, -87.22949981689453, -126.10362243652344, 9.960421562194824, -0.4024369716644287, -0.3474354147911072, 3.504425287246704, 16.68198013305664, 1.4982413053512573, 
3, 515716837, -121.32073211669922, -87.29759979248047, -128.83187866210938, 9.9909086227417, -0.39035698771476746, -0.3495854437351227, 3.4995970726013184, 17.554414749145508, 1.5933340787887573, 
4, 515725170, -119.90373992919922, -87.31131744384766, -130.230224609375, 9.979207992553711, -0.378227174282074, -0.33986616134643555, 3.6434082984924316, 18.615135192871094, 1.5742640495300293, 
5, 515733503, -116.62631225585938, -87.37714385986328, -133.48204040527344, 9.987918853759766, -0.3790179491043091, -0.33920785784721375, 3.5246870517730713, 19.669679641723633, 1.591989517211914, 
6, 515741836, -115.16087341308594, -87.40731048583984, -134.9326629638672, 9.988451957702637, -0.3818804621696472, -0.3736686706542969, 3.56656551361084, 20.668476104736328, 1.6210099458694458, 
7, 515750169, -111.29129791259766, -87.46672821044922, -138.77557373046875, 9.998957633972168, -0.36799025535583496, -0.35355478525161743, 3.685159921646118, 21.768638610839844, 1.5636087656021118, 
8, 515758502, -109.75640869140625, -87.49727630615234, -140.31800842285156, 10.017845153808594, -0.3946835398674011, -0.3698124587535858, 3.7015531063079834, 22.61211585998535, 1.6546931266784668, 
9, 515766835, -105.3253402709961, -87.54329681396484, -144.7236785888672, 10.019376754760742, -0.3881911337375641, -0.34904786944389343, 3.5575244426727295, 23.471961975097656, 1.6265943050384521, 
10, 515775168, -103.47150421142578, -87.56442260742188, -146.57273864746094, 10.028570175170898, -0.385524719953537, -0.3357682526111603, 3.629014492034912, 24.263315200805664, 1.744676113128662, 
11, 515783501, -98.50860595703125, -87.59092712402344, -151.50936889648438, 10.030872344970703, -0.3906407058238983, -0.37640658020973206, 3.6518750190734863, 25.173864364624023, 1.671099305152893, 
12, 515791834, -96.30818939208984, -87.60298156738281, -153.7075653076172, 10.033374786376953, -0.3771001994609833, -0.3664606809616089, 3.735325813293457, 25.868648529052734, 1.7504009008407593, 
13, 515800167, -91.00416564941406, -87.60249328613281, -158.9847869873047, 10.031418800354004, -0.37109047174453735, -0.37602660059928894, 3.7714295387268066, 26.4255428314209, 1.737324833869934, 
14, 515808500, -88.63539123535156, -87.60330200195312, -161.36337280273438, 10.032400131225586, -0.394290030002594, -0.3676823079586029, 3.624915838241577, 27.158676147460938, 1.7664227485656738, 
15, 515816833, -83.15835571289062, -87.5728759765625, -166.8135223388672, 10.028032302856445, -0.3899407684803009, -0.35724857449531555, 3.789116621017456, 27.70722198486328, 1.6927692890167236, 
16, 515825166, -80.68019104003906, -87.55655670166016, -169.2907257080078, 10.031000137329102, -0.391828715801239, -0.40595683455467224, 3.7806639671325684, 28.268810272216797, 1.8159735202789307, 
17, 515833499, -75.28160858154297, -87.4919662475586, -174.66314697265625, 10.045052528381348, -0.38218697905540466, -0.38724830746650696, 3.7205982208251953, 28.851306915283203, 1.80116868019104, 
18, 515841832, -72.90546417236328, -87.46009826660156, -177.0463409423828, 10.044744491577148, -0.38567686080932617, -0.3998067080974579, 3.801591157913208, 29.26175308227539, 1.8262453079223633, 
19, 515850165, -67.8431396484375, -87.36344909667969, 177.9174346923828, 10.041997909545898, -0.38900601863861084, -0.39905059337615967, 3.7393479347229004, 29.601726531982422, 1.76802396774292, 
20, 515858498, -65.67520904541016, -87.31766510009766, 175.72561645507812, 10.052289962768555, -0.4049072861671448, -0.37486496567726135, 3.763681411743164, 29.845239639282227, 1.7626447677612305, 
21, 515866831, -61.06306838989258, -87.19091033935547, 171.14035034179688, 10.050355911254883, -0.39030519127845764, -0.4009295403957367, 3.8581221103668213, 30.38429832458496, 1.7924858331680298, 
22, 515875164, -59.08687973022461, -87.1314697265625, 169.13890075683594, 10.057602882385254, -0.3800095319747925, -0.3356137275695801, 3.7889630794525146, 30.54755973815918, 1.7033991813659668, 
23, 515883497, -55.04999923706055, -86.98130798339844, 165.12881469726562, 10.045406341552734, -0.38055965304374695, -0.40595728158950806, 3.841113567352295, 30.533859252929688, 1.6846750974655151, 
24, 515891830, -53.309879302978516, -86.91130065917969, 163.35244750976562, 10.041458129882812, -0.3804216682910919, -0.4185333251953125, 3.843470335006714, 30.813159942626953, 1.7370821237564087, 
25, 515900163, -49.82090759277344, -86.73986053466797, 159.88990783691406, 10.050178527832031, -0.3890210688114166, -0.38908663392066956, 3.8225183486938477, 30.812288284301758, 1.8085200786590576, 
26, 515908496, -48.349761962890625, -86.66258239746094, 158.44137573242188, 10.041656494140625, -0.40190389752388, -0.4073420763015747, 3.7044875621795654, 30.893024444580078, 1.7578809261322021, 
27, 515916829, -45.36006546020508, -86.4758071899414, 155.47779846191406, 10.041034698486328, -0.3996923565864563, -0.39179491996765137, 3.7752087116241455, 30.855731964111328, 1.7950217723846436, 
28, 515925162, -44.13941955566406, -86.39326477050781, 154.28091430664062, 10.030344009399414, -0.3816297650337219, -0.4165492057800293, 3.8493874073028564, 30.77914047241211, 1.8246829509735107, 
29, 515933495, -41.603179931640625, -86.19646453857422, 151.77125549316406, 10.034557342529297, -0.38491684198379517, -0.39335867762565613, 3.8118364810943604, 30.569717407226562, 1.8164604902267456, 
30, 515941828, -40.58544921875, -86.11370086669922, 150.7771453857422, 10.032729148864746, -0.3835527002811432, -0.42661550641059875, 3.8210575580596924, 30.357452392578125, 1.6845983266830444, 
31, 515950161, -38.414085388183594, -85.9107437133789, 148.6320037841797, 10.017824172973633, -0.3881504237651825, -0.3973349630832672, 3.7731587886810303, 30.167774200439453, 1.6590607166290283, 
32, 515958494, -37.588600158691406, -85.82946014404297, 147.8299560546875, 9.987948417663574, -0.384231835603714, -0.4093344509601593, 3.784813165664673, 29.722370147705078, 1.7120825052261353, 
33, 515966827, -35.74067687988281, -85.6234130859375, 146.0087127685547, 9.995570182800293, -0.38628220558166504, -0.4244520366191864, 3.815474033355713, 29.563688278198242, 1.6945877075195312, 
34, 515975160, -35.07298278808594, -85.54530334472656, 145.36448669433594, 9.987998962402344, -0.39309918880462646, -0.4087444543838501, 3.772031784057617, 28.965442657470703, 1.721073031425476, 
35, 515983493, -33.515357971191406, -85.34099578857422, 143.83351135253906, 9.979961395263672, -0.39882898330688477, -0.42919865250587463, 3.7760019302368164, 28.496829986572266, 1.7578294277191162, 
36, 515991826, -32.990970611572266, -85.26799011230469, 143.332763671875, 9.989007949829102, -0.39884153008461, -0.4257902503013611, 3.781278133392334, 27.96863555908203, 1.7707388401031494, 
37, 516000159, -31.66433334350586, -85.06771087646484, 142.03152465820312, 9.953169822692871, -0.37963205575942993, -0.4063481390476227, 3.60233736038208, 27.355253219604492, 1.7332651615142822, 
38, 516008492, -31.24705696105957, -85.0020523071289, 141.6376190185547, 9.969025611877441, -0.38556647300720215, -0.42391982674598694, 3.7179858684539795, 26.822145462036133, 1.6760942935943604, 
39, 516016825, -30.11117935180664, -84.8071060180664, 140.52786254882812, 9.940315246582031, -0.3891081213951111, -0.44032007455825806, 3.6673202514648438, 26.169723510742188, 1.7605443000793457, 
40, 516025158, -29.804780960083008, -84.75048065185547, 140.24465942382812, 9.936595916748047, -0.37034839391708374, -0.42646992206573486, 3.653001546859741, 25.397090911865234, 1.7293459177017212, 
41, 516033491, -28.832735061645508, -84.56494903564453, 139.29940795898438, 9.933978080749512, -0.3802788257598877, -0.3887796401977539, 3.7143478393554688, 24.61224365234375, 1.6964828968048096, 
42, 516041824, -28.609344482421875, -84.518310546875, 139.0995330810547, 9.9143648147583, -0.3820853531360626, -0.405405730009079, 3.666013240814209, 23.915611267089844, 1.7210723161697388, 
43, 516050157, -27.770660400390625, -84.34296417236328, 138.28684997558594, 9.9006929397583, -0.39544975757598877, -0.4461037814617157, 3.587966203689575, 23.044342041015625, 1.5989437103271484, 
44, 516058490, -27.62593650817871, -84.30879974365234, 138.1654052734375, 9.897871971130371, -0.39056164026260376, -0.4105518162250519, 3.594728708267212, 22.144588470458984, 1.6344704627990723, 
45, 516066823, -26.91323471069336, -84.14556121826172, 137.47943115234375, 9.883056640625, -0.38562890887260437, -0.4548322856426239, 3.630998134613037, 21.23699951171875, 1.6136716604232788, 
46, 516075156, -26.840576171875, -84.12464141845703, 137.4301300048828, 9.883686065673828, -0.3843909204006195, -0.4212595820426941, 3.569780111312866, 20.273468017578125, 1.5735597610473633, 
47, 516083489, -26.236587524414062, -83.9753646850586, 136.85235595703125, 9.891880989074707, -0.3633340001106262, -0.3994210362434387, 3.526773691177368, 19.288753509521484, 1.5833443403244019, 
48, 516091822, -26.23856544494629, -83.96824645996094, 136.87692260742188, 9.860177040100098, -0.3725254535675049, -0.43623441457748413, 3.4178364276885986, 18.215517044067383, 1.6212022304534912, 
49, 516100155, -25.73383331298828, -83.83480834960938, 136.3987579345703, 9.844124794006348, -0.37550267577171326, -0.4380737245082855, 3.5168092250823975, 17.122528076171875, 1.5475610494613647, 
50, 516108488, -25.79759407043457, -83.8431396484375, 136.48617553710938, 9.83009147644043, -0.38737866282463074, -0.43371641635894775, 3.499161720275879, 16.06222915649414, 1.5399794578552246, 
51, 516116821, -25.380517959594727, -83.72671508789062, 136.0961456298828, 9.843212127685547, -0.3851308822631836, -0.435123473405838, 3.5228800773620605, 14.842170715332031, 1.4681825637817383, 
52, 516125154, -25.509384155273438, -83.75157928466797, 136.2490997314453, 9.808530807495117, -0.3824154734611511, -0.45169681310653687, 3.5073065757751465, 13.735047340393066, 1.4669017791748047, 
53, 516133487, -25.17815399169922, -83.65226745605469, 135.94400024414062, 9.81330680847168, -0.3811671733856201, -0.4340393841266632, 3.3658392429351807, 12.564526557922363, 1.4839866161346436, 
54, 516141820, -25.38469123840332, -83.69376373291016, 136.1746368408203, 9.812731742858887, -0.3747164011001587, -0.4285285770893097, 3.4420924186706543, 11.300796508789062, 1.555860161781311, 
55, 516150153, -25.12784194946289, -83.61300659179688, 135.94459533691406, 9.814509391784668, -0.37779712677001953, -0.4368676543235779, 3.3826935291290283, 10.129305839538574, 1.37722647190094, 
56, 516158486, -25.392980575561523, -83.67200469970703, 136.23367309570312, 9.813279151916504, -0.3903839886188507, -0.4065549671649933, 3.37429141998291, 8.846158981323242, 1.369004249572754, 
57, 516166819, -25.21607780456543, -83.61054992675781, 136.08432006835938, 9.771549224853516, -0.38882434368133545, -0.4163562059402466, 3.420243501663208, 7.585399627685547, 1.3613454103469849, 
58, 516175152, -25.551164627075195, -83.68524932861328, 136.4436798095703, 9.791229248046875, -0.38462552428245544, -0.42672955989837646, 3.3517253398895264, 6.468773365020752, 1.3546345233917236, 
59, 516183485, -25.447595596313477, -83.64313507080078, 136.3667449951172, 9.7826566696167, -0.37066349387168884, -0.43758949637413025, 3.2524187564849854, 5.072053909301758, 1.2574540376663208, 
60, 516191818, -25.86732292175293, -83.7360610961914, 136.80990600585938, 9.781954765319824, -0.36552369594573975, -0.4352475702762604, 3.184413194656372, 3.74833607673645, 1.3075811862945557, 
61, 516200151, -25.850364685058594, -83.71497344970703, 136.81982421875, 9.771476745605469, -0.38296976685523987, -0.4083627760410309, 3.2286999225616455, 2.3209569454193115, 1.236296534538269, 
62, 516208484, -26.359041213989258, -83.82518005371094, 137.35198974609375, 9.791607856750488, -0.3777506947517395, -0.4561334252357483, 3.133543014526367, 1.1156535148620605, 1.2689547538757324, 
63, 516216817, -26.424942016601562, -83.82311248779297, 137.4453125, 9.779142379760742, -0.38272327184677124, -0.4408716857433319, 3.2233469486236572, -0.2199878692626953, 1.1932392120361328, 
64, 516225150, -27.03353500366211, -83.9501953125, 138.0778350830078, 9.792366027832031, -0.38298338651657104, -0.442751407623291, 3.123706579208374, -1.499649167060852, 1.2141400575637817, 
65, 516233483, -27.200651168823242, -83.9671401977539, 138.27223205566406, 9.778550148010254, -0.3809513449668884, -0.4429711103439331, 3.1478359699249268, -2.8325376510620117, 1.2607839107513428, 
66, 516241816, -27.93130874633789, -84.11051177978516, 139.02642822265625, 9.763672828674316, -0.3656690716743469, -0.4312156140804291, 2.998786687850952, -4.179205417633057, 1.1959799528121948, 
67, 516250149, -28.203542709350586, -84.14700317382812, 139.3260498046875, 9.785604476928711, -0.39484456181526184, -0.42074090242385864, 3.105290174484253, -5.475515842437744, 1.1967225074768066, 
68, 516258482, -29.075288772583008, -84.3060531616211, 140.22230529785156, 9.784148216247559, -0.3886461555957794, -0.45985525846481323, 3.0526790618896484, -6.8500285148620605, 1.1679067611694336, 
69, 516266815, -29.47281265258789, -84.36201477050781, 140.64630126953125, 9.780499458312988, -0.3834167718887329, -0.4285270571708679, 2.9340341091156006, -8.184837341308594, 1.1104284524917603, 
70, 516275148, -30.515623092651367, -84.53528594970703, 141.71316528320312, 9.80031681060791, -0.38740965723991394, -0.44033247232437134, 2.933393716812134, -9.472746849060059, 1.1271545886993408, 
71, 516283481, -31.052047729492188, -84.60784149169922, 142.2762908935547, 9.787772178649902, -0.38695278763771057, -0.4513605833053589, 2.9092910289764404, -10.622109413146973, 1.0451890230178833, 
72, 516291814, -32.294307708740234, -84.79312133789062, 143.54306030273438, 9.80182933807373, -0.37684768438339233, -0.43845927715301514, 2.9339826107025146, -11.929689407348633, 1.0539746284484863, 
73, 516300147, -33.0071907043457, -84.88143920898438, 144.2831573486328, 9.794023513793945, -0.3677980601787567, -0.4672936797142029, 2.904808521270752, -13.0939359664917, 1.020189642906189, 
74, 516308480, -34.50336837768555, -85.07709503173828, 145.80322265625, 9.836337089538574, -0.3781576156616211, -0.4047906696796417, 2.796588182449341, -14.391934394836426, 1.007920265197754, 
75, 516316813, -35.439674377441406, -85.18094635009766, 146.7659912109375, 9.819999694824219, -0.3925327956676483, -0.434287965297699, 2.764160633087158, -15.67538833618164, 0.9126097559928894, 
76, 516325146, -37.26042938232422, -85.38382720947266, 148.6114959716797, 9.827183723449707, -0.36387231945991516, -0.43096089363098145, 2.8356759548187256, -16.83210563659668, 0.9964196085929871, 
77, 516333479, -38.48707580566406, -85.4986801147461, 149.86663818359375, 9.834036827087402, -0.3815428912639618, -0.4404771029949188, 2.945740222930908, -18.069475173950195, 0.9985198974609375, 
78, 516341812, -40.71563720703125, -85.70513153076172, 152.11965942382812, 9.845900535583496, -0.37627801299095154, -0.42728304862976074, 2.744873523712158, -19.13054656982422, 0.9429883360862732, 
79, 516350145, -42.293888092041016, -85.82725524902344, 153.72447204589844, 9.847823143005371, -0.3802020251750946, -0.4229913055896759, 2.671565294265747, -20.22886085510254, 0.9467536807060242, 
80, 516358478, -45.0363883972168, -86.03108978271484, 156.4914093017578, 9.86817455291748, -0.3825928270816803, -0.4186581075191498, 2.6669299602508545, -21.210914611816406, 0.9316158294677734, 
81, 516366811, -47.0520133972168, -86.15467834472656, 158.5340576171875, 9.880959510803223, -0.3825097978115082, -0.40430423617362976, 2.6749467849731445, -22.11960220336914, 0.9475221633911133, 
82, 516375144, -50.429725646972656, -86.34811401367188, 161.93666076660156, 9.876501083374023, -0.40113067626953125, -0.4103443920612335, 2.6916987895965576, -23.10068130493164, 0.8771599531173706, 
83, 516383477, -53.015541076660156, -86.46814727783203, 164.5501251220703, 9.888199806213379, -0.3794229030609131, -0.4113321006298065, 2.7142648696899414, -24.14887046813965, 0.884690523147583, 
84, 516391810, -57.208736419677734, -86.64398193359375, 168.7685546875, 9.895746231079102, -0.39930301904678345, -0.4033508896827698, 2.6609106063842773, -25.16965103149414, 0.8211929202079773, 
85, 516400143, -60.46925735473633, -86.75080871582031, 172.0563507080078, 9.91429328918457, -0.3759348392486572, -0.368984192609787, 2.6277403831481934, -25.879907608032227, 0.8036983609199524, 
86, 516408476, -65.56954193115234, -86.89524841308594, 177.18309020996094, 9.936206817626953, -0.394082248210907, -0.404228538274765, 2.7559146881103516, -26.876615524291992, 0.7550826668739319, 
87, 516416809, -69.57971954345703, -86.97728729248047, -178.77862548828125, 9.93349838256836, -0.39768046140670776, -0.41359061002731323, 2.6900851726531982, -27.47577667236328, 0.8102298974990845, 
88, 516425142, -75.54679870605469, -87.07384490966797, -172.78639221191406, 9.938593864440918, -0.37582746148109436, -0.4240472614765167, 2.6131911277770996, -28.18132209777832, 0.8080782890319824, 
89, 516433475, -80.2439193725586, -87.11921691894531, -168.0623321533203, 9.970108032226562, -0.384170800447464, -0.40432336926460266, 2.4885528087615967, -28.985000610351562, 0.7310051918029785, 
90, 516441808, -86.87153625488281, -87.15545654296875, -161.40919494628906, 9.959000587463379, -0.3785736560821533, -0.4206801950931549, 2.598489284515381, -29.68212127685547, 0.8531083464622498, 
91, 516450141, -91.96056365966797, -87.15167236328125, -156.2919921875, 9.987425804138184, -0.39309531450271606, -0.4183117151260376, 2.5928287506103516, -30.2459659576416, 0.7944517731666565, 
92, 516458474, -98.67446899414062, -87.11921691894531, -149.5530242919922, 9.990557670593262, -0.37087729573249817, -0.3888320326805115, 2.517061710357666, -30.646677017211914, 0.794579803943634, 
93, 516466807, -103.67724609375, -87.06222534179688, -144.52256774902344, 9.989046096801758, -0.3758539855480194, -0.3944637179374695, 2.5077896118164062, -31.137575149536133, 0.8229348659515381, 
94, 516475140, -109.93921661376953, -86.9626235961914, -138.23590087890625, 9.99216365814209, -0.39082980155944824, -0.37952831387519836, 2.4567911624908447, -31.63425636291504, 0.7338995933532715, 
95, 516483473, -114.50375366210938, -86.85620880126953, -133.6434326171875, 10.019707679748535, -0.3892062306404114, -0.3945316672325134, 2.508967638015747, -32.084556579589844, 0.6289581060409546, 
96, 516491806, -119.93880462646484, -86.69731903076172, -128.1820526123047, 10.004091262817383, -0.39193791151046753, -0.40420371294021606, 2.441166877746582, -32.50855255126953, 0.7462201118469238, 
97, 516500139, -123.8097915649414, -86.54736328125, -124.28373718261719, 10.022778511047363, -0.40427330136299133, -0.407915860414505, 2.4416279792785645, -32.6419792175293, 0.7519066333770752, 
98, 516508472, -128.26698303222656, -86.34344482421875, -119.80255889892578, 10.0217866897583, -0.40081092715263367, -0.39666786789894104, 2.4515151977539062, -32.88096237182617, 0.8116902112960815, 
99, 516516805, -131.44898986816406, -86.1617660522461, -116.59357452392578, 10.032327651977539, -0.40125077962875366, -0.38807055354118347, 2.372520923614502, -33.02332305908203, 0.6427385807037354, 
100, 516525138, -135.04611206054688, -85.92706298828125, -112.96802520751953, 10.039358139038086, -0.40321049094200134, -0.3780745565891266, 2.4727492332458496, -33.174983978271484, 0.6244242787361145, 
101, 516533471, -137.6214599609375, -85.7204360961914, -110.36622619628906, 10.032029151916504, -0.38379189372062683, -0.38573476672172546, 2.3735198974609375, -33.34437561035156, 0.687179446220398, 
102, 516541804, -140.4820556640625, -85.46412658691406, -107.48186492919922, 10.049798011779785, -0.39105427265167236, -0.36770379543304443, 2.526334285736084, -33.229591369628906, 0.7163540124893188, 
103, 516550137, -142.5521697998047, -85.24165344238281, -105.38426971435547, 10.051353454589844, -0.3762141466140747, -0.38917288184165955, 2.4721858501434326, -33.29737091064453, 0.6754735708236694, 
104, 516558470, -144.84361267089844, -84.97126007080078, -103.06172180175781, 10.042720794677734, -0.38702958822250366, -0.378758043050766, 2.5059456825256348, -33.244606018066406, 0.7581564784049988, 
105, 516566803, -146.52000427246094, -84.73790740966797, -101.35797882080078, 10.04384708404541, -0.4069148898124695, -0.39828070998191833, 2.4481849670410156, -33.16307067871094, 0.667507529258728, 
106, 516575136, -148.35768127441406, -84.46176147460938, -99.49652099609375, 10.046560287475586, -0.3917517364025116, -0.3788946270942688, 2.5223639011383057, -32.799068450927734, 0.7577978372573853, 
107, 516583469, -149.71336364746094, -84.22355651855469, -98.11348724365234, 10.052068710327148, -0.3993677496910095, -0.37244340777397156, 2.4716734886169434, -32.62837600708008, 0.7094637751579285, 
108, 516591802, -151.20474243164062, -83.94657135009766, -96.59749603271484, 10.064105987548828, -0.38354843854904175, -0.37203359603881836, 2.44203782081604, -32.21002197265625, 0.733848512172699, 
109, 516600135, -152.3104705810547, -83.70708465576172, -95.46499633789062, 10.046703338623047, -0.3780495226383209, -0.40170228481292725, 2.444521903991699, -31.9122257232666, 0.7476801872253418, 
110, 516608468, -153.530517578125, -83.43269348144531, -94.21964263916016, 10.053342819213867, -0.40270429849624634, -0.37087005376815796, 2.4255425930023193, -31.457218170166016, 0.7532129287719727, 
111, 516616801, -154.44573974609375, -83.19551086425781, -93.27739715576172, 10.038515090942383, -0.38622042536735535, -0.36653992533683777, 2.48358416557312, -31.028228759765625, 0.6808269619941711, 
112, 516625134, -155.44851684570312, -82.92759704589844, -92.24862670898438, 10.031323432922363, -0.36801373958587646, -0.3612208366394043, 2.5308165550231934, -30.461841583251953, 0.7747544050216675, 
113, 516633467, -156.20225524902344, -82.69523620605469, -91.46747589111328, 10.031375885009766, -0.37756767868995667, -0.35684505105018616, 2.5490026473999023, -29.923276901245117, 0.7538275718688965, 
114, 516641800, -157.03858947753906, -82.43521881103516, -90.60498809814453, 10.034429550170898, -0.3718421757221222, -0.37272319197654724, 2.5708768367767334, -29.45130729675293, 0.7642012238502502, 
115, 516650133, -157.6666259765625, -82.21021270751953, -89.9496078491211, 10.034618377685547, -0.3921065330505371, -0.3625010848045349, 2.5846831798553467, -28.637786865234375, 0.7350009679794312, 
116, 516658466, -158.36280822753906, -81.96320343017578, -89.22843170166016, 10.019408226013184, -0.39301779866218567, -0.3708333969116211, 2.4940340518951416, -27.905099868774414, 0.7246271967887878, 
117, 516666799, -158.88742065429688, -81.74659729003906, -88.67707061767578, 10.010759353637695, -0.41053536534309387, -0.34585970640182495, 2.5443661212921143, -27.288232803344727, 0.7797746658325195, 
118, 516675132, -159.46804809570312, -81.51214599609375, -88.07061004638672, 10.009406089782715, -0.3811519145965576, -0.3629014790058136, 2.599936008453369, -26.49274253845215, 0.7803252935409546, 
119, 516683465, -159.89764404296875, -81.3071060180664, -87.61421966552734, 9.996309280395508, -0.37306922674179077, -0.3370385468006134, 2.5980405807495117, -25.584793090820312, 0.911342203617096, 
120, 516691798, -160.37890625, -81.08866119384766, -87.10676574707031, 9.977930068969727, -0.3884744942188263, -0.33617520332336426, 2.688932418823242, -24.710233688354492, 0.8320532441139221, 
121, 516700131, -160.73443603515625, -80.89657592773438, -86.7248306274414, 9.990860939025879, -0.4111841022968292, -0.3551977574825287, 2.6039185523986816, -23.78424644470215, 0.9454217553138733, 
122, 516708464, -161.13743591308594, -80.69570922851562, -86.2959976196289, 9.988229751586914, -0.3774491250514984, -0.35433876514434814, 2.6838862895965576, -22.800792694091797, 0.7817211151123047, 
123, 516716797, -161.4329833984375, -80.51866912841797, -85.97376251220703, 9.9887113571167, -0.38905349373817444, -0.34375548362731934, 2.7046852111816406, -21.797636032104492, 0.8762122392654419, 
124, 516725130, -161.7613067626953, -80.33651733398438, -85.61914825439453, 9.96396255493164, -0.3878433108329773, -0.3378068208694458, 2.776660919189453, -20.74662971496582, 0.8868420124053955, 
125, 516733463, -162.0059814453125, -80.17461395263672, -85.34773254394531, 9.959542274475098, -0.3883967399597168, -0.3248033821582794, 2.752122402191162, -19.832725524902344, 0.8409924507141113, 
126, 516741796, -162.2731475830078, -80.01101684570312, -85.05453491210938, 9.980713844299316, -0.3907993733882904, -0.33268463611602783, 2.8019416332244873, -18.733755111694336, 0.9660411477088928, 
127, 516750129, -162.461181640625, -79.8664779663086, -84.83946990966797, 9.956669807434082, -0.3785918354988098, -0.3207539916038513, 2.850391387939453, -17.552263259887695, 1.0011711120605469, 
128, 516758462, -162.67822265625, -79.72395324707031, -84.596435546875, 9.964932441711426, -0.38198450207710266, -0.34355881810188293, 2.8462157249450684, -16.469545364379883, 0.9066543579101562, 
129, 516766795, -162.820556640625, -79.59752655029297, -84.42804718017578, 9.949565887451172, -0.3862725496292114, -0.35491979122161865, 2.816042184829712, -15.212577819824219, 1.0756059885025024, 
130, 516775128, -162.9827880859375, -79.47785949707031, -84.24121856689453, 9.93111801147461, -0.3977489769458771, -0.33256450295448303, 2.740172863006592, -13.928306579589844, 1.0585212707519531, 
131, 516783461, -163.08616638183594, -79.3710708618164, -84.11111450195312, 9.930910110473633, -0.3770185112953186, -0.34589865803718567, 2.957061529159546, -12.738396644592285, 1.0394771099090576, 
132, 516791794, -163.2035369873047, -79.27415466308594, -83.96870422363281, 9.94566822052002, -0.38914954662323, -0.322433203458786, 2.860623598098755, -11.432439804077148, 1.0772323608398438, 
133, 516800127, -163.27137756347656, -79.18766021728516, -83.87539672851562, 9.945470809936523, -0.3758317828178406, -0.333305686712265, 2.8660542964935303, -10.190535545349121, 1.036889910697937, 
134, 516808460, -163.3524627685547, -79.1127700805664, -83.76919555664062, 9.922832489013672, -0.38619565963745117, -0.3458070158958435, 2.926785469055176, -9.048166275024414, 1.0250306129455566, 
135, 516816793, -163.3824462890625, -79.04571533203125, -83.71375274658203, 9.919258117675781, -0.390042245388031, -0.3354215621948242, 2.9416284561157227, -7.722256183624268, 1.1435601711273193, 
136, 516825126, -163.42025756835938, -78.99398803710938, -83.65020751953125, 9.919351577758789, -0.3801417350769043, -0.33525559306144714, 3.0706732273101807, -6.465545654296875, 1.1344929933547974, 
137, 516833459, -163.4166259765625, -78.94691467285156, -83.62812042236328, 9.911815643310547, -0.3798176944255829, -0.3400772213935852, 3.0511934757232666, -5.207515239715576, 1.173234462738037, 
138, 516841792, -163.41561889648438, -78.91947937011719, -83.60368347167969, 9.910578727722168, -0.3761238157749176, -0.32056546211242676, 3.100090980529785, -3.7547013759613037, 1.167932391166687, 
139, 516850125, -163.37571716308594, -78.89354705810547, -83.61763000488281, 9.928428649902344, -0.37887755036354065, -0.3329528272151947, 3.1646387577056885, -2.54524827003479, 1.2457740306854248, 
140, 516858458, -163.33453369140625, -78.88838958740234, -83.63365173339844, 9.921236991882324, -0.3871009349822998, -0.32200825214385986, 3.1249496936798096, -1.2513834238052368, 1.317147970199585, 
141, 516866791, -163.26278686523438, -78.88355255126953, -83.67964935302734, 9.912543296813965, -0.38251814246177673, -0.3082740008831024, 3.212934732437134, 0.09347914904356003, 1.2335431575775146, 
142, 516875124, -163.1893310546875, -78.90289306640625, -83.72779083251953, 9.926251411437988, -0.39352139830589294, -0.3308561146259308, 3.2151622772216797, 1.4750341176986694, 1.1923553943634033, 
143, 516883457, -163.08059692382812, -78.91978454589844, -83.81119537353516, 9.915324211120605, -0.4007783830165863, -0.3227192163467407, 3.236179828643799, 2.835496187210083, 1.3055320978164673, 
144, 516891790, -162.96434020996094, -78.9622802734375, -83.90282440185547, 9.922650337219238, -0.3819218873977661, -0.3342338800430298, 3.222642421722412, 4.1472649574279785, 1.3303650617599487, 
145, 516900123, -162.818115234375, -78.99893951416016, -84.02405548095703, 9.920646667480469, -0.4022770822048187, -0.3259190618991852, 3.268299102783203, 5.347559928894043, 1.418721079826355, 
146, 516908456, -162.6653289794922, -79.06371307373047, -84.1524429321289, 9.923274040222168, -0.39170563220977783, -0.3693111836910248, 3.250011444091797, 6.674327373504639, 1.3096047639846802, 
147, 516916789, -162.48745727539062, -79.12091064453125, -84.30581665039062, 9.91143798828125, -0.3848975598812103, -0.34061211347579956, 3.2821569442749023, 7.9131855964660645, 1.325664758682251, 
148, 516925122, -162.291748046875, -79.20761108398438, -84.47720336914062, 9.944929122924805, -0.3819383978843689, -0.3256909251213074, 3.3138673305511475, 9.225018501281738, 1.363497018814087, 
149, 516933455, -162.0713653564453, -79.28333282470703, -84.67328643798828, 9.946298599243164, -0.38305050134658813, -0.3462960124015808, 3.3311448097229004, 10.307771682739258, 1.4619966745376587, 
150, 516941788, -161.8289794921875, -79.3893051147461, -84.8916244506836, 9.932821273803711, -0.4073239266872406, -0.3576676547527313, 3.340891122817993, 11.490829467773438, 1.5173875093460083, 
151, 516950121, -161.56690979003906, -79.48468780517578, -85.1296157836914, 9.940690994262695, -0.40119174122810364, -0.3479604125022888, 3.386817216873169, 12.819387435913086, 1.435473084449768, 
152, 516958454, -161.27523803710938, -79.6117172241211, -85.39698791503906, 9.960235595703125, -0.3828539252281189, -0.3176562786102295, 3.443040132522583, 13.996310234069824, 1.5163627862930298, 
153, 516966787, -160.9652099609375, -79.72498321533203, -85.68236541748047, 9.973960876464844, -0.38963910937309265, -0.37707439064979553, 3.5177571773529053, 15.147236824035645, 1.4764047861099243, 
154, 516975120, -160.62310791015625, -79.8708267211914, -86.00022888183594, 9.9673433303833, -0.39532867074012756, -0.3519228994846344, 3.502504348754883, 16.247051239013672, 1.4930670261383057, 
155, 516983453, -160.26153564453125, -79.9998779296875, -86.33712005615234, 9.977195739746094, -0.38678303360939026, -0.35042232275009155, 3.5768492221832275, 17.24709129333496, 1.542130947113037, 
156, 516991786, -159.8611297607422, -80.16291046142578, -86.71343994140625, 9.99207592010498, -0.3993176519870758, -0.35684147477149963, 3.54232120513916, 18.357572555541992, 1.5301436185836792, 
157, 517000119, -159.43846130371094, -80.30790710449219, -87.11247253417969, 9.98716926574707, -0.4010940194129944, -0.36941930651664734, 3.539363384246826, 19.427570343017578, 1.6275674104690552, 
158, 517008452, -158.96932983398438, -80.48601531982422, -87.55757904052734, 9.99926471710205, -0.39757829904556274, -0.32991355657577515, 3.576747179031372, 20.29903221130371, 1.6485326290130615, 
159, 517016785, -158.48936462402344, -80.6441421508789, -88.01465606689453, 9.989182472229004, -0.394250750541687, -0.36966899037361145, 3.5064101219177246, 21.22170639038086, 1.5609830617904663, 
160, 517025118, -157.9442596435547, -80.83659362792969, -88.53529357910156, 10.012433052062988, -0.38762471079826355, -0.3553068935871124, 3.6898086071014404, 22.19405174255371, 1.6860320568084717, 
161, 517033451, -157.38827514648438, -81.00809478759766, -89.06757354736328, 10.01545524597168, -0.38562148809432983, -0.333361953496933, 3.6418590545654297, 23.12548828125, 1.5745846033096313, 
162, 517041784, -156.76052856445312, -81.2121810913086, -89.67135620117188, 10.015480995178223, -0.37959548830986023, -0.3767896592617035, 3.6891427040100098, 23.81607437133789, 1.7072663307189941, 
163, 517050117, -156.11619567871094, -81.39326477050781, -90.29178619384766, 10.01170539855957, -0.37759634852409363, -0.37666165828704834, 3.722620964050293, 24.66908073425293, 1.7086751461029053, 
164, 517058450, -155.39190673828125, -81.60810852050781, -90.99244689941406, 10.007950782775879, -0.3853318989276886, -0.3819742202758789, 3.658021926879883, 25.390560150146484, 1.7096744775772095, 
165, 517066783, -154.655517578125, -81.7969741821289, -91.70580291748047, 10.052020072937012, -0.38820403814315796, -0.37844279408454895, 3.6710853576660156, 26.005786895751953, 1.7021946907043457, 
166, 517075116, -153.8233642578125, -82.01847076416016, -92.51417541503906, 10.028946876525879, -0.3729991018772125, -0.3767528533935547, 3.724670886993408, 26.584110260009766, 1.7243770360946655, 
167, 517083449, -152.97824096679688, -82.21318817138672, -93.33602142333984, 10.024979591369629, -0.4060654938220978, -0.37354007363319397, 3.725080728530884, 27.186429977416992, 1.710545301437378, 
168, 517091782, -152.0187225341797, -82.44108581542969, -94.27156066894531, 10.023907661437988, -0.410256952047348, -0.37544944882392883, 3.775540828704834, 27.81011199951172, 1.6702030897140503, 
169, 517100115, -151.04576110839844, -82.6397476196289, -95.2218017578125, 10.043254852294922, -0.37284255027770996, -0.39962247014045715, 3.6873762607574463, 28.231719970703125, 1.7343153953552246, 
170, 517108448, -149.93955993652344, -82.86969757080078, -96.30399322509766, 10.045851707458496, -0.38968804478645325, -0.395190566778183, 3.8069698810577393, 28.680152893066406, 1.6777592897415161, 
171, 517116781, -148.81716918945312, -83.0689697265625, -97.40306854248047, 10.052327156066895, -0.401061087846756, -0.3886071741580963, 3.7938807010650635, 29.017799377441406, 1.7906924486160278, 
172, 517125114, -147.5295867919922, -83.29899597167969, -98.6673583984375, 10.032746315002441, -0.4005716145038605, -0.4021703004837036, 3.714681625366211, 29.49791145324707, 1.7894630432128906, 
173, 517133447, -146.23533630371094, -83.49751281738281, -99.93876647949219, 10.049936294555664, -0.39209142327308655, -0.3717093765735626, 3.7509255409240723, 29.732690811157227, 1.7650014162063599, 
174, 517141780, -144.75543212890625, -83.72321319580078, -101.39655303955078, 10.042600631713867, -0.38552945852279663, -0.3954235017299652, 3.800950765609741, 29.88522720336914, 1.7378761768341064, 
175, 517150113, -143.26976013183594, -83.91666412353516, -102.85924530029297, 10.060914039611816, -0.4014059603214264, -0.3916381597518921, 3.7821497917175293, 30.079334259033203, 1.7333166599273682, 
176, 517158446, -141.55157470703125, -84.1363296508789, -104.55298614501953, 10.04758071899414, -0.3849254548549652, -0.36453044414520264, 3.7405519485473633, 30.354297637939453, 1.7656159400939941, 
177, 517166779, -139.84286499023438, -84.32231903076172, -106.2378158569336, 10.059195518493652, -0.36919140815734863, -0.3799631893634796, 3.8633978366851807, 30.313905715942383, 1.6953051090240479, 
178, 517175112, -137.8703155517578, -84.53055572509766, -108.19214630126953, 10.042024612426758, -0.39075642824172974, -0.41247883439064026, 3.753922462463379, 30.322792053222656, 1.767665147781372, 
179, 517183445, -135.9059600830078, -84.70457458496094, -110.13349151611328, 10.027691841125488, -0.38796529173851013, -0.3732745051383972, 3.7849416732788086, 30.348129272460938, 1.7737104892730713, 
180, 517191778, -133.63485717773438, -84.89900207519531, -112.37957763671875, 10.034998893737793, -0.39335528016090393, -0.37788936495780945, 3.7583794593811035, 30.359703063964844, 1.7781157493591309, 
181, 517200111, -131.40545654296875, -85.05787658691406, -114.58578491210938, 10.042712211608887, -0.3875688910484314, -0.4020789861679077, 3.7728514671325684, 30.108478546142578, 1.7218668460845947, 
182, 517208444, -128.84048461914062, -85.23210906982422, -117.12615966796875, 10.024646759033203, -0.3671811819076538, -0.4173646569252014, 3.7899105548858643, 29.868144989013672, 1.760647177696228, 
183, 517216777, -126.33500671386719, -85.37145233154297, -119.60830688476562, 10.040627479553223, -0.3888789713382721, -0.3946785032749176, 3.7806386947631836, 29.67001724243164, 1.740539789199829, 
184, 517225110, -123.4622802734375, -85.52377319335938, -122.45824432373047, 10.020830154418945, -0.3832208514213562, -0.4114735722541809, 3.668166399002075, 29.396533966064453, 1.722071886062622, 
185, 517233443, -120.69766998291016, -85.64036560058594, -125.19974517822266, 10.017316818237305, -0.38899996876716614, -0.42613497376441956, 3.7457773685455322, 29.03495979309082, 1.715437889099121, 
186, 517241776, -117.5529556274414, -85.76534271240234, -128.32064819335938, 10.002497673034668, -0.39616283774375916, -0.420481413602829, 3.7599680423736572, 28.589916229248047, 1.7291673421859741, 
187, 517250109, -114.57170104980469, -85.8553695678711, -131.27821350097656, 9.994065284729004, -0.4027690887451172, -0.40560293197631836, 3.7860939502716064, 28.161874771118164, 1.7971470355987549, 
188, 517258442, -111.2058334350586, -85.95198822021484, -134.619873046875, 9.966676712036133, -0.37855657935142517, -0.42611104249954224, 3.7424728870391846, 27.749378204345703, 1.6748135089874268, 
189, 517266775, -108.09808349609375, -86.01469421386719, -137.70465087890625, 9.969748497009277, -0.38575100898742676, -0.4152565896511078, 3.703922748565674, 27.071596145629883, 1.7227888107299805, 
190, 517275108, -104.61886596679688, -86.08013916015625, -141.1584930419922, 9.992283821105957, -0.3956065773963928, -0.38405171036720276, 3.7751054763793945, 26.569381713867188, 1.7710461616516113, 
191, 517283441, -101.48588562011719, -86.11607360839844, -144.26815795898438, 9.944662094116211, -0.3795657157897949, -0.4056593179702759, 3.7094297409057617, 25.823286056518555, 1.6183339357376099, 
192, 517291774, -98.01882934570312, -86.15193176269531, -147.7104034423828, 9.929329872131348, -0.3822878301143646, -0.43744000792503357, 3.6630425453186035, 25.22578239440918, 1.7691504955291748, 
193, 517300107, -94.97015380859375, -86.16165924072266, -150.7360076904297, 9.948559761047363, -0.3815666139125824, -0.39558449387550354, 3.629744052886963, 24.412660598754883, 1.6809862852096558, 
194, 517308440, -91.64038848876953, -86.17203521728516, -154.04127502441406, 9.925765991210938, -0.3811112344264984, -0.3994505703449249, 3.6413471698760986, 23.714130401611328, 1.5675150156021118, 
195, 517316773, -88.7834243774414, -86.16039276123047, -156.87449645996094, 9.916213035583496, -0.38373902440071106, -0.4322965443134308, 3.602593183517456, 22.81594467163086, 1.6016334295272827, 
196, 517325106, -85.69596862792969, -86.14796447753906, -159.93670654296875, 9.903777122497559, -0.3819090723991394, -0.4188237488269806, 3.6695220470428467, 21.986087799072266, 1.5974065065383911, 
197, 517333439, -83.11092376708984, -86.11849212646484, -162.49742126464844, 9.900251388549805, -0.39951014518737793, -0.43346500396728516, 3.610532760620117, 21.05099105834961, 1.6188715696334839, 
198, 517341772, -80.34867858886719, -86.08943939208984, -165.23419189453125, 9.886728286743164, -0.39434894919395447, -0.42702651023864746, 3.622314929962158, 20.011869430541992, 1.5651583671569824, 
199, 517350105, -78.08558654785156, -86.04730224609375, -167.47276306152344, 9.873456001281738, -0.3916216194629669, -0.44793498516082764, 3.5962140560150146, 19.112245559692383, 1.630397915840149, 
200, 517358438, -75.66300964355469, -86.0069351196289, -169.8706817626953, 9.85612678527832, -0.3959655165672302, -0.4106684923171997, 3.4505202770233154, 18.087265014648438, 1.5460244417190552, 
201, 517366771, -73.7425537109375, -85.95819091796875, -171.766357421875, 9.858318328857422, -0.3826320469379425, -0.4128729999065399, 3.5252370834350586, 16.983728408813477, 1.5669513940811157, 
202, 517375104, -71.6777572631836, -85.91179656982422, -173.80674743652344, 9.851690292358398, -0.3709983825683594, -0.41986119747161865, 3.3953468799591064, 15.927292823791504, 1.498586654663086, 
203, 517383437, -70.09466552734375, -85.86161041259766, -175.36529541015625, 9.828545570373535, -0.39585593342781067, -0.4140983521938324, 3.3984715938568115, 14.719274520874023, 1.4551705121994019, 
204, 517391770, -68.37793731689453, -85.81432342529297, -177.0563201904297, 9.835665702819824, -0.3870895504951477, -0.4293360710144043, 3.461866855621338, 13.626673698425293, 1.4458471536636353, 
205, 517400103, -67.10249328613281, -85.7651596069336, -178.30645751953125, 9.795259475708008, -0.3828617334365845, -0.4403582215309143, 3.428619146347046, 12.486249923706055, 1.434448480606079, 
206, 517408436, -65.7021713256836, -85.72007751464844, -179.6804962158203, 9.800849914550781, -0.3806779384613037, -0.45091649889945984, 3.4504425525665283, 11.382532119750977, 1.460600733757019, 
207, 517416769, -64.73079681396484, -85.675048828125, 179.3743133544922, 9.804579734802246, -0.38715609908103943, -0.400856614112854, 3.464658498764038, 10.039243698120117, 1.4753801822662354, 
208, 517425102, -63.63726806640625, -85.63632202148438, 178.3070068359375, 9.779010772705078, -0.3684695363044739, -0.3938862383365631, 3.342017889022827, 8.909220695495605, 1.3871392011642456, 
209, 517433435, -62.93195724487305, -85.59815979003906, 177.62741088867188, 9.795281410217285, -0.38669800758361816, -0.44260454177856445, 3.335895299911499, 7.666058540344238, 1.426969051361084, 
210, 517441768, -62.121246337890625, -85.56796264648438, 176.8436737060547, 9.779500007629395, -0.38086986541748047, -0.4341086149215698, 3.365172863006592, 6.396105766296387, 1.3166229724884033, 
211, 517450101, -61.677490234375, -85.53858184814453, 176.42626953125, 9.76623249053955, -0.3761430084705353, -0.40099361538887024, 3.324190378189087, 5.118774890899658, 1.42164146900177, 
212, 517458434, -61.13277053833008, -85.51825714111328, 175.90855407714844, 9.778450965881348, -0.3666955530643463, -0.43836575746536255, 3.2604358196258545, 3.8731539249420166, 1.3040462732315063, 
213, 517466767, -60.94062805175781, -85.50050354003906, 175.74192810058594, 9.783756256103516, -0.38270512223243713, -0.42391058802604675, 3.115715503692627, 2.4440078735351562, 1.2731554508209229, 
214, 517475100, -60.65750503540039, -85.49098205566406, 175.48513793945312, 9.788296699523926, -0.37696000933647156, -0.434326171875, 3.118302583694458, 1.267622947692871, 1.3132930994033813, 
215, 517483433, -60.70642852783203, -85.48368835449219, 175.5607452392578, 9.771072387695312, -0.39108583331108093, -0.43308666348457336, 3.165433168411255, -0.16299620270729065, 1.2721054553985596, 
216, 517491766, -60.66753005981445, -85.48590087890625, 175.54891967773438, 9.79236125946045, -0.39463016390800476, -0.4392141103744507, 3.1361303329467773, -1.2977325916290283, 1.2154723405838013, 
217, 517500099, -60.9431266784668, -85.48959350585938, 175.85035705566406, 9.786650657653809, -0.3706090748310089, -0.4065057337284088, 2.9836742877960205, -2.6715261936187744, 1.169084906578064, 
218, 517508432, -61.17034149169922, -85.50350952148438, 176.10455322265625, 9.788017272949219, -0.3719964027404785, -0.4409838318824768, 3.045532703399658, -4.028388977050781, 1.218597173690796, 
219, 517516765, -61.69076919555664, -85.5169448852539, 176.65225219726562, 9.783343315124512, -0.36930978298187256, -0.4225040376186371, 3.0330331325531006, -5.247806549072266, 1.2479512691497803, 
220, 517525098, -62.18252182006836, -85.54209899902344, 177.17152404785156, 9.800230979919434, -0.394711434841156, -0.41765689849853516, 3.0365421772003174, -6.700082778930664, 1.149746298789978, 
221, 517533431, -62.95621109008789, -85.56544494628906, 177.97239685058594, 9.78561782836914, -0.38758018612861633, -0.4201070964336395, 2.969304323196411, -7.883484840393066, 1.116959810256958, 
222, 517541764, -63.72112274169922, -85.599853515625, 178.76480102539062, 9.800738334655762, -0.3775748014450073, -0.4344533085823059, 2.916769504547119, -9.235712051391602, 1.195467472076416, 
223, 517550097, -64.76842498779297, -85.63085174560547, 179.8401336669922, 9.787336349487305, -0.38076645135879517, -0.45022812485694885, 2.980523109436035, -10.491013526916504, 1.0978260040283203, 
224, 517558430, -65.81588745117188, -85.672607421875, -179.08363342285156, 9.808207511901855, -0.372341126203537, -0.4279018044471741, 3.011516809463501, -11.711301803588867, 1.1424461603164673, 
225, 517566763, -67.14827728271484, -85.70892333984375, -177.72300720214844, 9.816422462463379, -0.39475637674331665, -0.426708459854126, 2.9126205444335938, -12.964762687683105, 1.097493290901184, 
226, 517575096, -68.48829650878906, -85.75554656982422, -176.3540496826172, 9.809123992919922, -0.3781471252441406, -0.4152790307998657, 2.9673070907592773, -14.040790557861328, 1.0379401445388794, 
227, 517583429, -70.11223602294922, -85.79373931884766, -174.70225524902344, 9.815401077270508, -0.3970452845096588, -0.43840670585632324, 2.8128788471221924, -15.270915031433105, 1.0555371046066284, 
228, 517591762, -71.78130340576172, -85.84225463867188, -173.00482177734375, 9.840568542480469, -0.38210761547088623, -0.41364988684654236, 2.810394525527954, -16.43134307861328, 0.9882999062538147, 
229, 517600095, -73.72000885009766, -85.87959289550781, -171.03829956054688, 9.848875045776367, -0.3710532784461975, -0.435991108417511, 2.7312464714050293, -17.58454704284668, 0.9560259580612183, 
230, 517608428, -75.73064422607422, -85.92609405517578, -168.998779296875, 9.840545654296875, -0.3898431956768036, -0.38645318150520325, 2.774278402328491, -18.719694137573242, 0.9064367413520813, 
231, 517616761, -77.98212432861328, -85.95794677734375, -166.7188720703125, 9.842706680297852, -0.3824710249900818, -0.43282604217529297, 2.7242026329040527, -19.709043502807617, 0.8895058035850525, 
232, 517625094, -80.31543731689453, -85.99684143066406, -164.3565673828125, 9.845330238342285, -0.3897140622138977, -0.42878949642181396, 2.77650785446167, -20.711332321166992, 0.8238053917884827, 
233, 517633427, -82.88567352294922, -86.01876831054688, -161.7576446533203, 9.889524459838867, -0.3792780935764313, -0.4145969748497009, 2.695361614227295, -21.853343963623047, 0.7645596265792847, 
234, 517641760, -85.54595184326172, -86.04462432861328, -159.06837463378906, 9.863677024841309, -0.3852022886276245, -0.3824118673801422, 2.663292407989502, -22.74302864074707, 0.8992136120796204, 
235, 517650093, -88.38539123535156, -86.04963684082031, -156.2000732421875, 9.892631530761719, -0.3759423792362213, -0.4051547646522522, 2.673077344894409, -23.716630935668945, 0.8443737030029297, 
236, 517658426, -91.31912231445312, -86.05662536621094, -153.23721313476562, 9.914298057556152, -0.386656254529953, -0.3964868187904358, 2.684654951095581, -24.626449584960938, 0.9508777260780334, 
237, 517666759, -94.37757110595703, -86.04106903076172, -150.14976501464844, 9.91582202911377, -0.3921699821949005, -0.40182584524154663, 2.6164443492889404, -25.57899284362793, 0.7946308851242065, 
238, 517675092, -97.4995346069336, -86.02596282958984, -146.9979248046875, 9.916836738586426, -0.40063905715942383, -0.41934967041015625, 2.6464900970458984, -26.297653198242188, 0.8457825183868408, 
239, 517683425, -100.64923095703125, -85.98604583740234, -143.81863403320312, 9.9399995803833, -0.39376723766326904, -0.39054304361343384, 2.5965678691864014, -26.987060546875, 0.7733967304229736, 
240, 517691758, -103.85179901123047, -85.94498443603516, -140.58750915527344, 9.937315940856934, -0.3787483274936676, -0.41710400581359863, 2.607889413833618, -27.74703598022461, 0.7520344257354736, 
241, 517700091, -107.01376342773438, -85.87744903564453, -137.39569091796875, 9.953731536865234, -0.3867533206939697, -0.4119192957878113, 2.613166093826294, -28.470205307006836, 0.7645599246025085, 
242, 517708424, -110.1936264038086, -85.8077392578125, -134.1885986328125, 9.968588829040527, -0.39101067185401917, -0.3918983042240143, 2.515857696533203, -29.139659881591797, 0.8126378059387207, 
243, 517716757, -113.24999237060547, -85.71247863769531, -131.1022491455078, 9.989985466003418, -0.3751944899559021, -0.37265703082084656, 2.5682899951934814, -29.657808303833008, 0.71584153175354, 
244, 517725090, -116.29267120361328, -85.61421203613281, -128.0310821533203, 9.978667259216309, -0.38690274953842163, -0.3990567624568939, 2.5053555965423584, -30.22101593017578, 0.7898922562599182, 
245, 517733423, -119.15575408935547, -85.49150848388672, -125.13813781738281, 9.983255386352539, -0.3795360326766968, -0.4138757586479187, 2.51480770111084, -30.672006607055664, 0.7560559511184692, 
246, 517741756, -122.0002670288086, -85.36705017089844, -122.25988006591797, 9.999571800231934, -0.39936888217926025, -0.3898118734359741, 2.465987205505371, -31.2354736328125, 0.6916617751121521, 
247, 517750089, -124.62222290039062, -85.21963500976562, -119.60848236083984, 10.00374698638916, -0.3826947808265686, -0.3757990002632141, 2.4767446517944336, -31.516176223754883, 0.6742697358131409, 
248, 517758422, -127.2009506225586, -85.07109069824219, -117.00306701660156, 10.02485179901123, -0.37919577956199646, -0.38903844356536865, 2.3951382637023926, -31.885692596435547, 0.7354622483253479, 
249, 517766755, -129.5428009033203, -84.90122985839844, -114.63124084472656, 10.019182205200195, -0.3774762749671936, -0.4121731221675873, 2.4975950717926025, -32.1448860168457, 0.7815935611724854, 
250, 517775088, -131.8563995361328, -84.73169708251953, -112.28801727294922, 10.030445098876953, -0.37824884057044983, -0.3730367422103882, 2.4903719425201416, -32.53376007080078, 0.7143304944038391, 
251, 517783421, -133.93479919433594, -84.54318237304688, -110.17981719970703, 10.024209022521973, -0.3954121768474579, -0.37073734402656555, 2.4782052040100098, -32.70445251464844, 0.720862090587616, 
252, 517791754, -135.96337890625, -84.35725402832031, -108.12189483642578, 10.007865905761719, -0.39562204480171204, -0.3694273829460144, 2.4265668392181396, -32.698280334472656, 0.786024808883667, 
253, 517800087, -137.76968383789062, -84.15541076660156, -106.28591918945312, 10.028841972351074, -0.3844381272792816, -0.3670657277107239, 2.4490301609039307, -32.741180419921875, 0.7219634652137756, 
254, 517808420, -139.54815673828125, -83.95733642578125, -104.47842407226562, 10.04895305633545, -0.3806913495063782, -0.35132622718811035, 2.4450089931488037, -32.76823425292969, 0.7234235405921936, 
255, 517816753, -141.12203979492188, -83.74458312988281, -102.87591552734375, 10.044189453125, -0.39315545558929443, -0.38673877716064453, 2.340067148208618, -32.79192352294922, 0.6955551505088806, 
256, 517825086, -142.6697540283203, -83.537109375, -101.2998046875, 10.04985523223877, -0.3879338204860687, -0.3645819127559662, 2.424748420715332, -32.65073776245117, 0.7678130269050598, 
257, 517833419, -144.03021240234375, -83.31681060791016, -99.90930938720703, 10.034711837768555, -0.39418014883995056, -0.36777618527412415, 2.495392322540283, -32.61170196533203, 0.7274961471557617, 
258, 517841752, -145.38035583496094, -83.10437774658203, -98.53071594238281, 10.053887367248535, -0.37455207109451294, -0.37430137395858765, 2.4165258407592773, -32.32231140136719, 0.6798023581504822, 
259, 517850085, -146.55514526367188, -82.8798828125, -97.32646179199219, 10.051298141479492, -0.37025147676467896, -0.34822627902030945, 2.4506187438964844, -32.19298553466797, 0.739534854888916, 
260, 517858418, -147.72410583496094, -82.66393280029297, -96.12809753417969, 10.045577049255371, -0.3829546272754669, -0.3991847336292267, 2.569058895111084, -31.880413055419922, 0.7890983819961548, 
261, 517866751, -148.73597717285156, -82.43849182128906, -95.0866470336914, 10.041238784790039, -0.38474562764167786, -0.3622588515281677, 2.502307891845703, -31.527551651000977, 0.746015191078186, 
262, 517875084, -149.75120544433594, -82.22406005859375, -94.04328155517578, 10.029121398925781, -0.39370396733283997, -0.3700190782546997, 2.480459213256836, -31.031021118164062, 0.73223477602005, 
263, 517883417, -150.62237548828125, -81.99972534179688, -93.1429443359375, 10.04694938659668, -0.38879072666168213, -0.37485143542289734, 2.470059633255005, -30.737764358520508, 0.8085140585899353, 
264, 517891750, -151.50770568847656, -81.78804779052734, -92.23025512695312, 10.039070129394531, -0.379425972700119, -0.35234081745147705, 2.3969051837921143, -30.18410873413086, 0.7264459133148193, 
265, 517900083, -152.2567596435547, -81.56790924072266, -91.45172882080078, 10.03891658782959, -0.38388046622276306, -0.37704816460609436, 2.5333011150360107, -29.687551498413086, 0.8199380040168762, 
266, 517908416, -153.0204620361328, -81.36166381835938, -90.66051483154297, 10.036911964416504, -0.38387933373451233, -0.3663601875305176, 2.4871184825897217, -29.047115325927734, 0.8243435025215149, 
267, 517916749, -153.66697692871094, -81.1488265991211, -89.98566436767578, 10.03890323638916, -0.38353148102760315, -0.36588722467422485, 2.458097219467163, -28.356321334838867, 0.7498572468757629, 
268, 517925082, -154.328369140625, -80.95124053955078, -89.29632568359375, 10.028076171875, -0.38709723949432373, -0.3840853273868561, 2.5501291751861572, -27.68661117553711, 0.8193486332893372, 
269, 517933415, -154.87643432617188, -80.74677276611328, -88.71939849853516, 10.025186538696289, -0.3846534788608551, -0.3522941470146179, 2.59672212600708, -26.89052391052246, 0.8738815188407898, 
270, 517941748, -155.45021057128906, -80.55944061279297, -88.11805725097656, 10.007269859313965, -0.4011705219745636, -0.3276241719722748, 2.5736169815063477, -26.17831039428711, 0.8073610663414001, 
271, 517950081, -155.92327880859375, -80.36581420898438, -87.61616516113281, 10.009315490722656, -0.3741960823535919, -0.3317434787750244, 2.6158809661865234, -25.30681610107422, 0.7840521335601807, 
272, 517958414, -156.4219970703125, -80.19035339355469, -87.0908432006836, 9.995969772338867, -0.40407276153564453, -0.3638370633125305, 2.5145254135131836, -24.55626678466797, 0.7811322212219238, 
273, 517966747, -156.8257598876953, -80.00776672363281, -86.65888977050781, 9.979660987854004, -0.3910463750362396, -0.35043570399284363, 2.6049180030822754, -23.669754028320312, 0.8262900114059448, 
274, 517975080, -157.2469940185547, -79.84666442871094, -86.21060943603516, 9.97909164428711, -0.386177659034729, -0.3643237054347992, 2.6674931049346924, -22.605302810668945, 0.8958581686019897, 
275, 517983413, -157.58331298828125, -79.67840576171875, -85.84617614746094, 9.966299057006836, -0.3849986493587494, -0.3519980013370514, 2.680940628051758, -21.649633407592773, 0.8956788778305054, 
276, 517991746, -157.9404754638672, -79.53186798095703, -85.46202087402344, 9.991012573242188, -0.3653426766395569, -0.34192022681236267, 2.71006441116333, -20.719018936157227, 0.9935511350631714, 
277, 518000079, -158.21656799316406, -79.37850952148438, -85.15827178955078, 9.985003471374512, -0.39671459794044495, -0.3188588619232178, 2.701841354370117, -19.59099006652832, 1.0079716444015503, 
278, 518008412, -158.51832580566406, -79.24927520751953, -84.83018493652344, 9.986687660217285, -0.38759616017341614, -0.3349938988685608, 2.697384834289551, -18.565677642822266, 0.9861739873886108, 
279, 518016745, -158.74867248535156, -79.11201477050781, -84.57213592529297, 9.962646484375, -0.39747142791748047, -0.33294355869293213, 2.778043508529663, -17.49735450744629, 0.9167848229408264, 
280, 518025078, -158.99530029296875, -79.00048065185547, -84.29894256591797, 9.954368591308594, -0.3870508372783661, -0.3252466320991516, 2.8272619247436523, -16.335586547851562, 1.0797044038772583, 
281, 518033411, -159.17514038085938, -78.88064575195312, -84.09213256835938, 9.95055103302002, -0.3949395418167114, -0.3264484703540802, 2.7695653438568115, -15.179959297180176, 1.02321195602417, 
282, 518041744, -159.37667846679688, -78.78959655761719, -83.86360168457031, 9.950294494628906, -0.37864556908607483, -0.35175275802612305, 2.9528608322143555, -13.880087852478027, 0.975620687007904, 
283, 518050077, -159.5126953125, -78.68923950195312, -83.70071411132812, 9.954107284545898, -0.356753945350647, -0.3334586024284363, 2.8466641902923584, -12.667279243469238, 0.9948570728302002, 
284, 518058410, -159.66725158691406, -78.61727142333984, -83.5207290649414, 9.917770385742188, -0.3713899552822113, -0.31928545236587524, 2.8535542488098145, -11.524832725524902, 1.1209303140640259, 
285, 518066743, -159.75790405273438, -78.5360107421875, -83.40373229980469, 9.916909217834473, -0.3871627449989319, -0.3292054235935211, 2.8856873512268066, -10.169441223144531, 1.119713544845581, 
286, 518075076, -159.8712158203125, -78.48479461669922, -83.26591491699219, 9.915182113647461, -0.39904969930648804, -0.3229019343852997, 2.8139803409576416, -9.029454231262207, 1.1374002695083618, 
287, 518083409, -159.92449951171875, -78.42200469970703, -83.1860122680664, 9.930455207824707, -0.39716291427612305, -0.31799575686454773, 3.003166437149048, -7.801647186279297, 1.1382966041564941, 
288, 518091742, -159.9953155517578, -78.39202880859375, -83.08990478515625, 9.930562019348145, -0.38104480504989624, -0.33217573165893555, 3.011209726333618, -6.4612298011779785, 1.1722867488861084, 
289, 518100075, -160.0115203857422, -78.34966278076172, -83.04778289794922, 9.936631202697754, -0.37597745656967163, -0.32916051149368286, 2.9911532402038574, -5.210024833679199, 1.1439061164855957, 
290, 518108408, -160.0408935546875, -78.34024047851562, -82.99276733398438, 9.920449256896973, -0.3784455358982086, -0.35667484998703003, 3.142815113067627, -3.9731645584106445, 1.2624231576919556, 
291, 518116741, -160.0167236328125, -78.31764221191406, -82.99148559570312, 9.921307563781738, -0.3913176655769348, -0.3337011933326721, 3.0477354526519775, -2.6478078365325928, 1.2617828845977783, 
292, 518125074, -160.00718688964844, -78.33058166503906, -82.97621154785156, 9.926437377929688, -0.3913741409778595, -0.3091435134410858, 3.1293935775756836, -1.2923533916473389, 1.2682377099990845, 
293, 518133407, -159.94956970214844, -78.32791137695312, -83.00863647460938, 9.912402153015137, -0.3695443570613861, -0.31443995237350464, 3.107224225997925, -0.12645748257637024, 1.2167657613754272, 
294, 518141740, -159.9029083251953, -78.3626708984375, -83.0305404663086, 9.914957046508789, -0.3729482889175415, -0.3635390102863312, 3.19741153717041, 1.3066459894180298, 1.2300338745117188, 
295, 518150073, -159.80648803710938, -78.38143157958984, -83.10120391845703, 9.929601669311523, -0.390554815530777, -0.2851692736148834, 3.2624597549438477, 2.599102258682251, 1.2010772228240967, 
296, 518158406, -159.71646118164062, -78.43661499023438, -83.16730499267578, 9.917356491088867, -0.39531588554382324, -0.30112069845199585, 3.205775022506714, 3.816521167755127, 1.3796594142913818, 
297, 518166739, -159.57443237304688, -78.47528839111328, -83.28485870361328, 9.921948432922363, -0.4025757610797882, -0.34229469299316406, 3.220811128616333, 5.2177228927612305, 1.4096795320510864, 
298, 518175072, -159.44448852539062, -78.55180358886719, -83.3909683227539, 9.91038990020752, -0.40447062253952026, -0.34807389974594116, 3.25673508644104, 6.370786190032959, 1.356132984161377, 
299, 518183405, -159.2672119140625, -78.60893249511719, -83.5438003540039, 9.93502426147461, -0.3928789794445038, -0.3393809497356415, 3.2956812381744385, 7.571004390716553, 1.3647263050079346, 
300, 518191738, -159.0919952392578, -78.70574188232422, -83.69523620605469, 9.960309028625488, -0.4026491343975067, -0.33502197265625, 3.342863082885742, 8.86611270904541, 1.415417194366455, 
301, 518200071, -158.87051391601562, -78.78177642822266, -83.89280700683594, 9.939440727233887, -0.38875994086265564, -0.3555515706539154, 3.329569101333618, 10.043368339538574, 1.4348328113555908, 
302, 518208404, -158.64450073242188, -78.8983154296875, -84.09524536132812, 9.928927421569824, -0.37587249279022217, -0.35261088609695435, 3.401442527770996, 11.328228950500488, 1.534472107887268, 
303, 518216737, -158.37777709960938, -78.99339294433594, -84.33731079101562, 9.95389175415039, -0.3839760422706604, -0.35607317090034485, 3.4983673095703125, 12.511481285095215, 1.3955918550491333, 
304, 518225070, -158.10694885253906, -79.12869262695312, -84.58441162109375, 9.9781494140625, -0.40688881278038025, -0.3204066753387451, 3.485278367996216, 13.6199369430542, 1.4423121213912964, 
305, 518233403, -157.7881317138672, -79.24003601074219, -84.87979125976562, 9.939885139465332, -0.38794180750846863, -0.32845020294189453, 3.426109552383423, 14.712536811828613, 1.553580403327942, 
306, 518241736, -157.46055603027344, -79.39205169677734, -85.18460083007812, 9.955273628234863, -0.36497336626052856, -0.3309796452522278, 3.46158504486084, 15.780035972595215, 1.5722018480300903, 
307, 518250069, -157.0918731689453, -79.519775390625, -85.53030395507812, 9.982536315917969, -0.3946722745895386, -0.3470248281955719, 3.4518520832061768, 16.895103454589844, 1.4878032207489014, 
308, 518258402, -156.70675659179688, -79.68861389160156, -85.89234161376953, 9.968880653381348, -0.3863212466239929, -0.3279581069946289, 3.5566396713256836, 17.92276954650879, 1.5224847793579102, 
309, 518266735, -156.27169799804688, -79.83016967773438, -86.30426025390625, 9.992156028747559, -0.3898000121116638, -0.3389833867549896, 3.5728025436401367, 18.89946746826172, 1.689131259918213, 
310, 518275068, -155.814697265625, -80.014404296875, -86.73798370361328, 9.998176574707031, -0.40413257479667664, -0.36259597539901733, 3.622109889984131, 19.984027862548828, 1.6332921981811523, 
311, 518283401, -155.3190155029297, -80.1688461303711, -87.21044921875, 9.985876083374023, -0.4005488157272339, -0.35738012194633484, 3.628769874572754, 20.708526611328125, 1.6327285766601562, 
312, 518291734, -154.7888641357422, -80.36528015136719, -87.71817016601562, 9.994132041931152, -0.37612035870552063, -0.37889042496681213, 3.616487979888916, 21.715181350708008, 1.6837139129638672, 
313, 518300067, -154.22132873535156, -80.53257751464844, -88.2631607055664, 9.999847412109375, -0.390417218208313, -0.36148715019226074, 3.5910658836364746, 22.572603225708008, 1.5814234018325806, 
314, 518308400, -153.61370849609375, -80.74078369140625, -88.84793853759766, 10.017486572265625, -0.37308478355407715, -0.3756410777568817, 3.6857874393463135, 23.359220504760742, 1.579886794090271, 
315, 518316733, -152.96035766601562, -80.91801452636719, -89.47889709472656, 10.002189636230469, -0.3697918653488159, -0.3561423718929291, 3.6478524208068848, 24.19350242614746, 1.6468168497085571, 
316, 518325066, -152.25555419921875, -81.13526153564453, -90.16111755371094, 10.026591300964355, -0.3731270134449005, -0.3670176565647125, 3.705894947052002, 24.843154907226562, 1.670817255973816, 
317, 518333399, -151.51129150390625, -81.3200912475586, -90.88302612304688, 10.011502265930176, -0.4016450047492981, -0.3832054138183594, 3.6878628730773926, 25.54442596435547, 1.6354953050613403, 
318, 518341732, -150.69883728027344, -81.54476165771484, -91.6729736328125, 10.006109237670898, -0.3899906277656555, -0.3511207103729248, 3.7249529361724854, 26.18163299560547, 1.681959867477417, 
319, 518350065, -149.8446502685547, -81.73456573486328, -92.50497436523438, 10.030436515808105, -0.4075188934803009, -0.38996320962905884, 3.715808153152466, 26.724550247192383, 1.7488642930984497, 
320, 518358398, -148.90586853027344, -81.96417999267578, -93.42133331298828, 10.018369674682617, -0.38591766357421875, -0.36512479186058044, 3.7629895210266113, 27.34930992126465, 1.7403602600097656, 
321, 518366731, -147.92591857910156, -82.15782928466797, -94.37877655029297, 10.050868034362793, -0.3933996558189392, -0.35727497935295105, 3.7890398502349854, 27.836313247680664, 1.7933309078216553, 
322, 518375064, -146.8506622314453, -82.38944244384766, -95.4312973022461, 10.026305198669434, -0.37439942359924316, -0.3641515374183655, 3.8047406673431396, 28.21066665649414, 1.7019902467727661, 
323, 518383397, -145.73741149902344, -82.5841293334961, -96.52277374267578, 10.053031921386719, -0.3719940483570099, -0.4007992446422577, 3.7465453147888184, 28.66329574584961, 1.7259138822555542, 
324, 518391730, -144.4959259033203, -82.8150405883789, -97.74192810058594, 10.062485694885254, -0.3798213601112366, -0.40021607279777527, 3.7584307193756104, 28.969106674194336, 1.8076235055923462, 
325, 518400063, -143.2216033935547, -83.0068359375, -98.9942855834961, 10.0471773147583, -0.3735637068748474, -0.399903267621994, 3.792856216430664, 29.238414764404297, 1.847914695739746, 
326, 518408396, -141.80926513671875, -83.23410034179688, -100.38467407226562, 10.053882598876953, -0.3775230944156647, -0.4103851318359375, 3.7346351146698, 29.392053604125977, 1.679091215133667, 
327, 518416729, -140.36094665527344, -83.42216491699219, -101.81116485595703, 10.059183120727539, -0.3881290555000305, -0.3803991973400116, 3.7806386947631836, 29.741943359375, 1.761082410812378, 
328, 518425062, -138.7305450439453, -83.642822265625, -103.41844177246094, 10.049880981445312, -0.38687658309936523, -0.3857915997505188, 3.840242624282837, 29.82731056213379, 1.7867735624313354, 
329, 518433395, -137.0902099609375, -83.82209777832031, -105.03662109375, 10.038030624389648, -0.38263508677482605, -0.40850967168807983, 3.8233633041381836, 29.855953216552734, 1.7744532823562622, 
330, 518441728, -135.23252868652344, -84.03237915039062, -106.871826171875, 10.034980773925781, -0.3886204659938812, -0.38654765486717224, 3.7875285148620605, 29.922779083251953, 1.7785003185272217, 
331, 518450061, -133.3756866455078, -84.19984436035156, -108.70630645751953, 10.035438537597656, -0.3790014088153839, -0.38191986083984375, 3.8400886058807373, 29.84972381591797, 1.8530632257461548, 
332, 518458394, -131.26641845703125, -84.3967514038086, -110.79405975341797, 10.020123481750488, -0.38762471079826355, -0.4047181010246277, 3.749389171600342, 29.91255760192871, 1.7423843145370483, 
333, 518466727, -129.1951446533203, -84.54985809326172, -112.84351348876953, 10.025810241699219, -0.38906151056289673, -0.3983761966228485, 3.74723744392395, 29.599109649658203, 1.7508364915847778, 
334, 518475060, -126.83138275146484, -84.72905731201172, -115.1845474243164, 10.02717113494873, -0.3879941403865814, -0.37787318229675293, 3.7795116901397705, 29.534902572631836, 1.7175894975662231, 
335, 518483393, -124.53508758544922, -84.86439514160156, -117.45846557617188, 10.007255554199219, -0.3753177225589752, -0.38688725233078003, 3.826923370361328, 29.222301483154297, 1.7112114429473877, 
336, 518491726, -121.91773223876953, -85.0225601196289, -120.05220031738281, 10.011333465576172, -0.36846140027046204, -0.42386114597320557, 3.689810037612915, 29.02484130859375, 1.6567299365997314, 
337, 518500059, -119.4033432006836, -85.13723754882812, -122.54428100585938, 10.004650115966797, -0.362242192029953, -0.387353777885437, 3.7667806148529053, 28.706432342529297, 1.7311904430389404, 
338, 518508392, -116.5583267211914, -85.26927185058594, -125.36498260498047, 9.998505592346191, -0.38638266921043396, -0.42460939288139343, 3.6952404975891113, 28.160003662109375, 1.8021420240402222, 
339, 518516725, -113.88961029052734, -85.35970306396484, -128.01177978515625, 9.978670120239258, -0.3973170220851898, -0.39715808629989624, 3.6740574836730957, 27.706785202026367, 1.7407190799713135, 
340, 518525058, -110.86813354492188, -85.4655532836914, -131.0087890625, 9.964654922485352, -0.3796776533126831, -0.3989911675453186, 3.6275155544281006, 27.220266342163086, 1.7468150854110718, 
341, 518533391, -108.08928680419922, -85.53138732910156, -133.76516723632812, 9.984001159667969, -0.3883519470691681, -0.3775666356086731, 3.724261522293091, 26.71479606628418, 1.6947416067123413, 
342, 518541724, -104.96759796142578, -85.6097412109375, -136.86349487304688, 9.950769424438477, -0.40078839659690857, -0.3685266673564911, 3.702667713165283, 26.02884292602539, 1.729602336883545, 
343, 518550057, -102.16804504394531, -85.65030670166016, -139.64065551757812, 9.954638481140137, -0.3995923101902008, -0.4096887409687042, 3.67385196685791, 25.421220779418945, 1.7133373022079468, 
344, 518558390, -99.01404571533203, -85.701904296875, -142.7708282470703, 9.930745124816895, -0.39530062675476074, -0.41024455428123474, 3.6595075130462646, 24.889286041259766, 1.6817548274993896, 
345, 518566723, -96.26701354980469, -85.71971130371094, -145.4955596923828, 9.925836563110352, -0.39609771966934204, -0.4352989196777344, 3.587249994277954, 24.100473403930664, 1.6517091989517212, 
346, 518575056, -93.2041015625, -85.74687957763672, -148.53504943847656, 9.938810348510742, -0.3759489059448242, -0.42782559990882874, 3.6096880435943604, 23.31075668334961, 1.5691287517547607, 
347, 518583389, -90.59696197509766, -85.74347686767578, -151.1195831298828, 9.915416717529297, -0.3770601451396942, -0.41975006461143494, 3.591731548309326, 22.55523681640625, 1.6677947044372559, 
348, 518591722, -87.70645141601562, -85.74789428710938, -153.9864044189453, 9.908644676208496, -0.4077548682689667, -0.42668047547340393, 3.56245493888855, 21.604053497314453, 1.670048713684082, 
349, 518600055, -85.33063507080078, -85.72822570800781, -156.33880615234375, 9.908143043518066, -0.3776110112667084, -0.4131695330142975, 3.574544668197632, 20.643646240234375, 1.5996094942092896, 
350, 518608388, -82.66569519042969, -85.71678161621094, -158.97897338867188, 9.887813568115234, -0.38116133213043213, -0.43454620242118835, 3.603078842163086, 19.84332847595215, 1.5005336999893188, 
351, 518616721, -80.53681945800781, -85.68507385253906, -161.08346557617188, 9.887476921081543, -0.40548840165138245, -0.4048137366771698, 3.6271049976348877, 18.833715438842773, 1.5226385593414307, 
352, 518625054, -78.15293884277344, -85.66130828857422, -163.44186401367188, 9.86133098602295, -0.3954474627971649, -0.40620896220207214, 3.5847129821777344, 17.821439743041992, 1.4898778200149536, 
353, 518633387, -76.30685424804688, -85.62064361572266, -165.26412963867188, 9.860692024230957, -0.3866150975227356, -0.392622709274292, 3.5018253326416016, 16.82758331298828, 1.6048346757888794, 
354, 518641720, -74.22330474853516, -85.58829498291016, -167.32223510742188, 9.84194564819336, -0.402074933052063, -0.43498125672340393, 3.512660026550293, 15.711159706115723, 1.5761722326278687, 
355, 518650053, -72.67662811279297, -85.54412078857422, -168.8448486328125, 9.818436622619629, -0.37694552540779114, -0.42664313316345215, 3.4472157955169678, 14.580802917480469, 1.5900294780731201, 
356, 518658386, -70.89198303222656, -85.50926208496094, -170.60455322265625, 9.817069053649902, -0.3831310272216797, -0.41897886991500854, 3.4028520584106445, 13.477293014526367, 1.4447969198226929, 
357, 518666719, -69.6177978515625, -85.46663665771484, -171.85386657714844, 9.822646141052246, -0.37990278005599976, -0.4324856400489807, 3.4227535724639893, 12.35892105102539, 1.3860887289047241, 
358, 518675052, -68.12142181396484, -85.4327163696289, -173.3247833251953, 9.823765754699707, -0.38242921233177185, -0.40596815943717957, 3.381822109222412, 11.176234245300293, 1.3849618434906006, 
359, 518683385, -67.12186431884766, -85.39232635498047, -174.2992401123047, 9.8045015335083, -0.37026447057724, -0.4148571789264679, 3.3745219707489014, 10.011350631713867, 1.4723063707351685, 
360, 518691718, -65.88774108886719, -85.36148071289062, -175.5078887939453, 9.81795883178711, -0.38237443566322327, -0.44241467118263245, 3.281952142715454, 8.972359657287598, 1.3978970050811768, 
361, 518700051, -65.1387939453125, -85.32676696777344, -176.23179626464844, 9.810389518737793, -0.3971073031425476, -0.4311506748199463, 3.277418613433838, 7.653841018676758, 1.4313490390777588, 
362, 518708384, -64.17337799072266, -85.30260467529297, -177.17111206054688, 9.789390563964844, -0.3830586075782776, -0.4455198347568512, 3.278237819671631, 6.460806846618652, 1.3539941310882568, 
363, 518716717, -63.683658599853516, -85.27619934082031, -177.6348114013672, 9.791925430297852, -0.36997461318969727, -0.43396785855293274, 3.297320604324341, 4.996440887451172, 1.3939011096954346, 
364, 518725050, -62.976436614990234, -85.26062774658203, -178.31605529785156, 9.777994155883789, -0.39934042096138, -0.4302250146865845, 3.178367853164673, 3.8849878311157227, 1.3177753686904907, 
365, 518733383, -62.70183563232422, -85.2437973022461, -178.56488037109375, 9.793420791625977, -0.369935542345047, -0.45363450050354004, 3.1805710792541504, 2.621053457260132, 1.2473877668380737, 
366, 518741716, -62.23762512207031, -85.23885345458984, -179.00144958496094, 9.76315689086914, -0.3820672333240509, -0.4380891025066376, 3.2693240642547607, 1.2836060523986816, 1.2212611436843872, 
367, 518750049, -62.197479248046875, -85.23157501220703, -179.01478576660156, 9.773296356201172, -0.37774452567100525, -0.41587087512016296, 3.215329647064209, 0.007863570936024189, 1.2787139415740967, 
368, 518758382, -61.98229217529297, -85.23663330078125, -179.2032470703125, 9.767244338989258, -0.38734737038612366, -0.453560471534729, 3.077576160430908, -1.346476435661316, 1.291059970855713, 
369, 518766715, -62.15892791748047, -85.24066925048828, -179.00006103515625, 9.774161338806152, -0.37122076749801636, -0.42282047867774963, 3.0925090312957764, -2.5358476638793945, 1.0989532470703125, 
370, 518775048, -62.16553497314453, -85.2560806274414, -178.96664428710938, 9.792739868164062, -0.36329954862594604, -0.4373382031917572, 3.0148468017578125, -3.7611560821533203, 1.2321728467941284, 
371, 518783381, -62.569984436035156, -85.26960754394531, -178.5355682373047, 9.782586097717285, -0.3828409016132355, -0.4096871614456177, 2.9867992401123047, -5.049987316131592, 1.150309681892395, 
372, 518791714, -62.815521240234375, -85.2954330444336, -178.26248168945312, 9.788712501525879, -0.3828461766242981, -0.43604758381843567, 3.0231456756591797, -6.306340217590332, 1.1993610858917236, 
373, 518800047, -63.456424713134766, -85.31834411621094, -177.5938720703125, 9.801597595214844, -0.3603750467300415, -0.43891647458076477, 3.046992540359497, -7.621604919433594, 1.1177027225494385, 
374, 518808380, -63.95511245727539, -85.35421752929688, -177.0675811767578, 9.792817115783691, -0.3882063329219818, -0.4432542026042938, 2.953526735305786, -8.884208679199219, 1.1356585025787354, 
375, 518816713, -64.84992980957031, -85.38505554199219, -176.1455841064453, 9.777212142944336, -0.36811622977256775, -0.43443208932876587, 2.8786048889160156, -10.183978080749512, 1.1305869817733765, 
376, 518825046, -65.60799407958984, -85.42984008789062, -175.3593292236328, 9.774866104125977, -0.3749072253704071, -0.4152185320854187, 2.912518262863159, -11.355238914489746, 1.0527451038360596, 
377, 518833379, -66.76636505126953, -85.46672821044922, -174.1736297607422, 9.792524337768555, -0.37928178906440735, -0.4065174162387848, 2.8309624195098877, -12.664947509765625, 1.0968528985977173, 
378, 518841712, -67.79570770263672, -85.51673126220703, -173.1160888671875, 9.794960021972656, -0.39132124185562134, -0.43975505232810974, 2.8466131687164307, -13.655196189880371, 1.094675898551941, 
379, 518850045, -69.20578002929688, -85.55802917480469, -171.6779327392578, 9.822226524353027, -0.3694029152393341, -0.4400293529033661, 2.838928699493408, -14.858678817749023, 0.9122768044471741, 
380, 518858378, -70.54639434814453, -85.61296081542969, -170.30935668945312, 9.830002784729004, -0.3829319477081299, -0.4098292291164398, 2.7617785930633545, -16.177505493164062, 0.9226250648498535, 
381, 518866711, -72.24876403808594, -85.6543197631836, -168.5789794921875, 9.835853576660156, -0.3788997232913971, -0.4410337209701538, 2.7502267360687256, -17.11747169494629, 0.9481366872787476, 
382, 518875044, -73.88707733154297, -85.70928192138672, -166.911865234375, 9.834404945373535, -0.3624447286128998, -0.42848411202430725, 2.789621114730835, -18.27223777770996, 0.8612532019615173, 
383, 518883377, -75.89620971679688, -85.74798583984375, -164.87353515625, 9.854555130004883, -0.38591837882995605, -0.40163925290107727, 2.815056800842285, -19.351625442504883, 0.8875336050987244, 
384, 518891710, -77.8519058227539, -85.79793548583984, -162.88902282714844, 9.872807502746582, -0.3902386724948883, -0.39531219005584717, 2.732015371322632, -20.31364631652832, 0.926544189453125, 
385, 518900043, -80.16095733642578, -85.82927703857422, -160.5508270263672, 9.876718521118164, -0.37840113043785095, -0.4008026123046875, 2.729889154434204, -21.377532958984375, 0.8547216653823853, 
386, 518908376, -82.43267822265625, -85.87113189697266, -158.24896240234375, 9.878128051757812, -0.38570988178253174, -0.41181817650794983, 2.8109068870544434, -22.29109001159668, 0.8683740496635437, 
387, 518916709, -85.02932739257812, -85.888671875, -155.6234893798828, 9.885542869567871, -0.3780750036239624, -0.42083609104156494, 2.665034294128418, -23.293275833129883, 0.9964709281921387, 
388, 518925042, -87.59994506835938, -85.91635131835938, -153.0229949951172, 9.879067420959473, -0.38568976521492004, -0.3978995382785797, 2.7058379650115967, -24.164649963378906, 0.9120978116989136, 
389, 518933375, -90.42745208740234, -85.91798400878906, -150.1671142578125, 9.925328254699707, -0.39309927821159363, -0.4347628951072693, 2.5121684074401855, -24.963197708129883, 0.8831791877746582, 
390, 518941708, -93.23712921142578, -85.9286880493164, -147.32801818847656, 9.92672061920166, -0.38758647441864014, -0.3916747272014618, 2.6626014709472656, -25.803274154663086, 0.7475007772445679, 
391, 518950041, -96.24977111816406, -85.90950012207031, -144.28602600097656, 9.933465957641602, -0.39410895109176636, -0.4239131808280945, 2.5780487060546875, -26.645828247070312, 0.7985499501228333, 
392, 518958374, -99.22854614257812, -85.89716339111328, -141.277587890625, 9.944243431091309, -0.37321290373802185, -0.40797075629234314, 2.6629345417022705, -27.338462829589844, 0.8028531670570374, 
393, 518966707, -102.32282257080078, -85.85301208496094, -138.15382385253906, 9.9581880569458, -0.3719274699687958, -0.4171813726425171, 2.5631158351898193, -28.04631233215332, 0.80533766746521, 
394, 518975040, -105.36841583251953, -85.81568145751953, -135.08152770996094, 9.957233428955078, -0.3791177570819855, -0.36901336908340454, 2.546184539794922, -28.628753662109375, 0.7506769299507141, 
395, 518983373, -108.43634033203125, -85.74513244628906, -131.98435974121094, 9.969550132751465, -0.3858429193496704, -0.3842363655567169, 2.5177276134490967, -29.196725845336914, 0.7933246493339539, 
396, 518991706, -111.44367218017578, -85.68098449707031, -128.941162109375, 9.979936599731445, -0.3775992691516876, -0.4110204577445984, 2.6109378337860107, -29.733497619628906, 0.7555949091911316, 
397, 519000039, -114.39396667480469, -85.58412170410156, -125.9619369506836, 9.995153427124023, -0.38460391759872437, -0.4185622036457062, 2.4049477577209473, -30.183364868164062, 0.7812091708183289, 
398, 519008372, -117.2868881225586, -85.49302673339844, -123.04349517822266, 9.981216430664062, -0.37944504618644714, -0.3936424255371094, 2.426669120788574, -30.774852752685547, 0.7676080465316772, 
399, 519016705, -120.0425033569336, -85.37086486816406, -120.25880432128906, 9.997247695922852, -0.39982807636260986, -0.39436930418014526, 2.425567865371704, -30.962604522705078, 0.7629718780517578, 
400, 519025038, -122.72587585449219, -85.25550079345703, -117.54801940917969, 10.000082015991211, -0.40569427609443665, -0.40298691391944885, 2.4551007747650146, -31.35732078552246, 0.7773414254188538, 
401, 519033371, -125.243896484375, -85.10992431640625, -115.00033569335938, 10.018452644348145, -0.38099798560142517, -0.3929760158061981, 2.496877431869507, -31.629776000976562, 0.8002917766571045, 
402, 519041704, -127.68682098388672, -84.97289276123047, -112.52767944335938, 10.004398345947266, -0.4097742438316345, -0.38190120458602905, 2.5209298133850098, -31.85297966003418, 0.8163776993751526, 
403, 519050037, -129.9439239501953, -84.80763244628906, -110.24085235595703, 10.02839183807373, -0.3680476248264313, -0.37962350249290466, 2.4807920455932617, -32.05072021484375, 0.8022385239601135, 
404, 519058370, -132.15667724609375, -84.65203094482422, -107.99385070800781, 10.040665626525879, -0.3822266161441803, -0.39180684089660645, 2.492753744125366, -32.34572219848633, 0.6701457500457764, 
405, 519066703, -134.16751098632812, -84.47146606445312, -105.95282745361328, 10.024652481079102, -0.365919828414917, -0.3829682171344757, 2.499516010284424, -32.34477615356445, 0.6165863871574402, 
406, 519075036, -136.12313842773438, -84.30120086669922, -103.96849822998047, 10.022048950195312, -0.4097183048725128, -0.3805428445339203, 2.5045878887176514, -32.371055603027344, 0.7090283036231995, 
407, 519083369, -137.8797149658203, -84.10801696777344, -102.1816635131836, 10.032474517822266, -0.3775426149368286, -0.4058130979537964, 2.5411901473999023, -32.30350875854492, 0.6592341065406799, 
408, 519091702, -139.59982299804688, -83.9261703491211, -100.43195343017578, 10.048707962036133, -0.3716190457344055, -0.362611323595047, 2.4955458641052246, -32.326332092285156, 0.7738323211669922, 
409, 519100035, -141.12506103515625, -83.72277069091797, -98.87694549560547, 10.054862976074219, -0.40025994181632996, -0.34623315930366516, 2.472108840942383, -32.19603729248047, 0.8111268281936646, 
410, 519108368, -142.62928771972656, -83.5346450805664, -97.34425354003906, 10.045964241027832, -0.3949877619743347, -0.3812684714794159, 2.4450347423553467, -31.894500732421875, 0.7129984498023987, 
411, 519116701, -143.95018005371094, -83.32644653320312, -95.99378967285156, 10.055822372436523, -0.4038868248462677, -0.37754225730895996, 2.4843523502349854, -31.705162048339844, 0.7710915803909302, 
412, 519125034, -145.26724243164062, -83.13256072998047, -94.64863586425781, 10.034177780151367, -0.39288127422332764, -0.3774193525314331, 2.435352087020874, -31.549423217773438, 0.7794417142868042, 
413, 519133367, -146.41131591796875, -82.9222183227539, -93.4758071899414, 10.043124198913574, -0.39415237307548523, -0.3539067506790161, 2.4158596992492676, -31.073535919189453, 0.7364610433578491, 
414, 519141700, -147.55313110351562, -82.72821807861328, -92.30594635009766, 10.029915809631348, -0.4040693938732147, -0.3615244925022125, 2.48594069480896, -30.684383392333984, 0.7956300973892212, 
415, 519150033, -148.54180908203125, -82.51861572265625, -91.28755950927734, 10.024225234985352, -0.3831154406070709, -0.37104156613349915, 2.5400373935699463, -30.252649307250977, 0.7151755690574646, 
416, 519158366, -149.53945922851562, -82.32611846923828, -90.26239776611328, 10.022553443908691, -0.39653730392456055, -0.3356342315673828, 2.4447009563446045, -29.82491683959961, 0.7825922966003418, 
417, 519166699, -150.39186096191406, -82.12000274658203, -89.38018798828125, 10.038268089294434, -0.3844122886657715, -0.3815663158893585, 2.597899913787842, -29.190887451171875, 0.6970406770706177, 
418, 519175032, -151.25723266601562, -81.93190002441406, -88.4869155883789, 10.056236267089844, -0.3888814449310303, -0.34145408868789673, 2.5612971782684326, -28.68684959411621, 0.8221150636672974, 
419, 519183365, -151.9861297607422, -81.73057556152344, -87.72946166992188, 10.030731201171875, -0.3807035982608795, -0.3333449363708496, 2.4888856410980225, -28.00889015197754, 0.8461667895317078, 
420, 519191698, -152.7398223876953, -81.54966735839844, -86.94805908203125, 10.011672973632812, -0.4021538496017456, -0.36702197790145874, 2.5720551013946533, -27.3680477142334, 0.7939137816429138, 
421, 519200031, -153.3622283935547, -81.35700988769531, -86.29759216308594, 10.023771286010742, -0.3929559886455536, -0.3415592908859253, 2.4977478981018066, -26.483943939208984, 0.8679645657539368, 
422, 519208364, -154.0152587890625, -81.18521118164062, -85.61697387695312, 10.012757301330566, -0.38782522082328796, -0.3504534661769867, 2.617494821548462, -25.863235473632812, 0.8227553367614746, 
423, 519216697, -154.55494689941406, -81.00110626220703, -85.04885864257812, 10.00644302368164, -0.3991197347640991, -0.3551913797855377, 2.570082187652588, -25.110170364379883, 0.8151734471321106, 
424, 519225030, -155.12249755859375, -80.83976745605469, -84.45487213134766, 9.987031936645508, -0.39441707730293274, -0.34823641180992126, 2.541804552078247, -24.279991149902344, 0.8419916033744812, 
425, 519233363, -155.57998657226562, -80.6668701171875, -83.96883392333984, 9.985007286071777, -0.4048754870891571, -0.3451547622680664, 2.656863212585449, -23.392196655273438, 0.8756742477416992, 
426, 519241696, -156.06935119628906, -80.517822265625, -83.45303344726562, 9.969244956970215, -0.3720398247241974, -0.34325656294822693, 2.598667621612549, -22.528356552124023, 0.8829230070114136, 
427, 519250029, -156.4560546875, -80.35922241210938, -83.0381088256836, 9.993416786193848, -0.4025105834007263, -0.34645095467567444, 2.6835274696350098, -21.3869571685791, 0.8378674983978271, 
428, 519258362, -156.8745574951172, -80.22489166259766, -82.59275817871094, 9.986949920654297, -0.39293837547302246, -0.35227784514427185, 2.7246897220611572, -20.52947235107422, 0.8901975154876709, 
429, 519266695, -157.19512939453125, -80.08003997802734, -82.24504852294922, 9.982622146606445, -0.3836234509944916, -0.32127857208251953, 2.6430060863494873, -19.422475814819336, 0.9600988030433655, 
430, 519275028, -157.54835510253906, -79.96272277832031, -81.8649673461914, 9.968222618103027, -0.3861403465270996, -0.35675719380378723, 2.793104887008667, -18.29892921447754, 0.9000588655471802, 
431, 519283361, -157.814453125, -79.83284759521484, -81.57100677490234, 9.96511459350586, -0.3951606750488281, -0.32068854570388794, 2.8013525009155273, -17.40273666381836, 0.9468816518783569, 
432, 519291694, -158.11166381835938, -79.73101043701172, -81.24764251708984, 9.95881462097168, -0.3711290955543518, -0.34059205651283264, 2.7790427207946777, -16.28102684020996, 0.9794886112213135, 
433, 519300027, -158.32424926757812, -79.61856079101562, -81.00788879394531, 9.94395637512207, -0.39206555485725403, -0.30726680159568787, 2.7935526371002197, -15.086146354675293, 0.9780924916267395, 
434, 519308360, -158.56443786621094, -79.53544616699219, -80.74156188964844, 9.952152252197266, -0.38222312927246094, -0.3161858916282654, 2.867398738861084, -13.871417045593262, 1.0562160015106201, 
435, 519316693, -158.72323608398438, -79.44181060791016, -80.55548095703125, 9.952128410339355, -0.3695356249809265, -0.3644900619983673, 2.8855206966400146, -12.601117134094238, 1.064322829246521, 
436, 519325026, -158.91648864746094, -79.37785339355469, -80.336181640625, 9.945334434509277, -0.3759843409061432, -0.33510684967041016, 2.9285271167755127, -11.489253044128418, 1.0297436714172363, 
437, 519333359, -159.02932739257812, -79.30101013183594, -80.19658660888672, 9.924670219421387, -0.37363624572753906, -0.3273999094963074, 2.919766902923584, -10.370936393737793, 1.1844024658203125, 
438, 519341692, -159.17526245117188, -79.25627136230469, -80.0248031616211, 9.935638427734375, -0.37638533115386963, -0.33436980843544006, 3.001681089401245, -9.06801700592041, 1.091294527053833, 
439, 519350025, -159.24546813964844, -79.19986724853516, -79.92810821533203, 9.938214302062988, -0.3845005929470062, -0.34901490807533264, 2.959596872329712, -7.76345682144165, 1.1529479026794434, 
440, 519358358, -159.34805297851562, -79.17530822753906, -79.80025482177734, 9.918971061706543, -0.3869591951370239, -0.340387761592865, 3.012054443359375, -6.563762664794922, 1.104152798652649, 
441, 519366691, -159.3758544921875, -79.13829803466797, -79.74662780761719, 9.937577247619629, -0.3846493065357208, -0.29916754364967346, 2.976937770843506, -5.252596378326416, 1.212091326713562, 
442, 519375024, -159.4346466064453, -79.13381958007812, -79.66299438476562, 9.918304443359375, -0.3960641622543335, -0.32818710803985596, 3.0522689819335938, -4.058075904846191, 1.1654733419418335, 
443, 519383357, -159.4229736328125, -79.11614990234375, -79.64867401123047, 9.923851013183594, -0.38852304220199585, -0.31447917222976685, 3.088615894317627, -2.772254228591919, 1.2227979898452759, 
444, 519391690, -159.43734741210938, -79.13162994384766, -79.60973358154297, 9.905529022216797, -0.37531378865242004, -0.30387240648269653, 3.07242751121521, -1.5859180688858032, 1.2762035131454468, 
445, 519400023, -159.3838348388672, -79.13359069824219, -79.63725280761719, 9.903520584106445, -0.39117491245269775, -0.31714680790901184, 3.1712467670440674, -0.2452947199344635, 1.2897534370422363, 
446, 519408356, -159.35617065429688, -79.17037963867188, -79.64105987548828, 9.90363597869873, -0.39275309443473816, -0.3146754205226898, 3.0858237743377686, 1.052361011505127, 1.267776608467102, 
447, 519416689, -159.2646942138672, -79.19298553466797, -79.70752716064453, 9.927587509155273, -0.3846108615398407, -0.32017818093299866, 3.1346187591552734, 2.374875068664551, 1.2369625568389893, 
448, 519425022, -159.19259643554688, -79.25140380859375, -79.75526428222656, 9.930550575256348, -0.390203595161438, -0.3223767876625061, 3.23115873336792, 3.7274856567382812, 1.2534326314926147, 
449, 519433355, -159.05723571777344, -79.2933578491211, -79.86573028564453, 9.940633773803711, -0.38437438011169434, -0.3133673667907715, 3.213280200958252, 4.8845319747924805, 1.308733582496643, 
450, 519441688, -158.94236755371094, -79.37091827392578, -79.95658111572266, 9.9343900680542, -0.4005340039730072, -0.3276428282260895, 3.256849765777588, 6.102437496185303, 1.2868846654891968, 
451, 519450021, -158.759765625, -79.43267822265625, -80.11460876464844, 9.944174766540527, -0.3832908570766449, -0.3303709626197815, 3.268606662750244, 7.467113971710205, 1.3776617050170898, 
452, 519458354, -158.5975799560547, -79.53010559082031, -80.25365447998047, 9.937873840332031, -0.3952523469924927, -0.3478691577911377, 3.234438180923462, 8.599007606506348, 1.3184672594070435, 
453, 519466687, -158.36680603027344, -79.6096420288086, -80.45943450927734, 9.933547973632812, -0.40127602219581604, -0.34447312355041504, 3.3979332447052, 9.801722526550293, 1.4660565853118896, 
454, 519475020, -158.15206909179688, -79.72463989257812, -80.65048217773438, 9.942285537719727, -0.39833953976631165, -0.34618183970451355, 3.3684263229370117, 10.852752685546875, 1.4397250413894653, 
455, 519483353, -157.87826538085938, -79.82196044921875, -80.90027618408203, 9.95973014831543, -0.3754328191280365, -0.29682841897010803, 3.355260133743286, 12.104777336120605, 1.3693372011184692, 
456, 519491686, -157.60580444335938, -79.95572662353516, -81.1493911743164, 9.942011833190918, -0.37045493721961975, -0.3345155119895935, 3.402416229248047, 13.26817512512207, 1.5040936470031738, 
457, 519500019, -157.27484130859375, -80.06926727294922, -81.45536804199219, 9.969464302062988, -0.3792257606983185, -0.34535491466522217, 3.538377285003662, 14.291825294494629, 1.4722297191619873, 
458, 519508352, -156.94061279296875, -80.21922302246094, -81.76622009277344, 9.952381134033203, -0.3668663203716278, -0.32917138934135437, 3.5041048526763916, 15.420540809631348, 1.600326418876648, 
459, 519516685, -156.54763793945312, -80.3478775024414, -82.13607025146484, 9.961498260498047, -0.3693716526031494, -0.3461935222148895, 3.396857976913452, 16.40433120727539, 1.6046807765960693, 
460, 519525018, -156.14744567871094, -80.51359558105469, -82.51312255859375, 9.984538078308105, -0.3844713270664215, -0.36358654499053955, 3.522855043411255, 17.51717185974121, 1.6343936920166016, 
461, 519533351, -155.6874237060547, -80.65758514404297, -82.94971466064453, 9.972526550292969, -0.38928744196891785, -0.33375176787376404, 3.5068464279174805, 18.526142120361328, 1.5945122241973877, 
462, 519541684, -155.21446228027344, -80.83834838867188, -83.39982604980469, 9.978646278381348, -0.3940209150314331, -0.33966171741485596, 3.536865472793579, 19.55939483642578, 1.60970139503479, 
463, 519550017, -154.68240356445312, -80.99444580078125, -83.90856170654297, 9.991578102111816, -0.38234391808509827, -0.3446124494075775, 3.5546422004699707, 20.297622680664062, 1.626299500465393, 
464, 519558350, -154.1310272216797, -81.18677520751953, -84.4370346069336, 9.994996070861816, -0.40385618805885315, -0.34776392579078674, 3.5960092544555664, 21.22078514099121, 1.6052701473236084, 
465, 519566683, -153.51211547851562, -81.3553237915039, -85.03263854980469, 9.986950874328613, -0.3868259787559509, -0.3818814158439636, 3.6093544960021973, 22.1776065826416, 1.642385482788086, 
466, 519575016, -152.8599395751953, -81.5581283569336, -85.66246795654297, 10.009860038757324, -0.40527117252349854, -0.3710898160934448, 3.572829008102417, 22.892810821533203, 1.7635407447814941, 
467, 519583349, -152.14881896972656, -81.73565673828125, -86.35064697265625, 10.025197982788086, -0.39574459195137024, -0.37062251567840576, 3.6167829036712646, 23.665721893310547, 1.64020836353302, 
468, 519591682, -151.3908233642578, -81.94774627685547, -87.08638763427734, 10.02224349975586, -0.3987218141555786, -0.3462459444999695, 3.6044623851776123, 24.427541732788086, 1.7125176191329956, 
469, 519600015, -150.57119750976562, -82.13288879394531, -87.8829574584961, 10.009689331054688, -0.40916767716407776, -0.37340861558914185, 3.672801971435547, 25.068052291870117, 1.638082504272461, 
470, 519608348, -149.6928253173828, -82.35186767578125, -88.73875427246094, 10.030945777893066, -0.3895885944366455, -0.398435115814209, 3.6766438484191895, 25.73771095275879, 1.642667293548584, 
471, 519616681, -148.7435760498047, -82.54246520996094, -89.66463470458984, 10.025979042053223, -0.40431076288223267, -0.35719895362854004, 3.743342876434326, 26.329195022583008, 1.6911295652389526, 
472, 519625014, -147.71914672851562, -82.76494598388672, -90.66616821289062, 10.034379005432129, -0.3914962708950043, -0.3801560401916504, 3.7400903701782227, 26.808618545532227, 1.718613624572754, 
473, 519633347, -146.6273651123047, -82.95755767822266, -91.73544311523438, 10.037525177001953, -0.3791305124759674, -0.4059901237487793, 3.701848268508911, 27.281991958618164, 1.7093156576156616, 
474, 519641680, -145.43386840820312, -83.18195343017578, -92.90679168701172, 10.024781227111816, -0.37850743532180786, -0.347160667181015, 3.6780269145965576, 27.817232131958008, 1.72581148147583, 
475, 519650013, -144.1744842529297, -83.3746337890625, -94.14409637451172, 10.034555435180664, -0.35843926668167114, -0.3603688180446625, 3.6437296867370605, 28.100780487060547, 1.731010913848877, 
476, 519658346, -142.7896728515625, -83.59739685058594, -95.50647735595703, 10.034971237182617, -0.39411187171936035, -0.3808691203594208, 3.683612108230591, 28.51325035095215, 1.716180682182312, 
477, 519666679, -141.32916259765625, -83.78732299804688, -96.94376373291016, 10.032763481140137, -0.3958378732204437, -0.3765794038772583, 3.785837411880493, 28.803892135620117, 1.7973519563674927, 
478, 519675012, -139.72169494628906, -84.00399780273438, -98.52889251708984, 10.035820960998535, -0.40257546305656433, -0.36708706617355347, 3.787989616394043, 28.941082000732422, 1.7725576162338257, 
479, 519683345, -138.0456085205078, -84.18726348876953, -100.18218231201172, 10.04575252532959, -0.39245909452438354, -0.355708509683609, 3.7672417163848877, 29.16510581970215, 1.7760411500930786, 
480, 519691678, -136.1803741455078, -84.39688873291016, -102.02486419677734, 10.022956848144531, -0.3873444199562073, -0.3933582305908203, 3.7587130069732666, 29.401451110839844, 1.7020931243896484, 
481, 519700011, -134.25836181640625, -84.56993103027344, -103.92445373535156, 10.049703598022461, -0.40175697207450867, -0.37577202916145325, 3.735454797744751, 29.343793869018555, 1.7952520847320557, 
482, 519708344, -132.1002960205078, -84.76554107666016, -106.04907989501953, 10.039848327636719, -0.375945508480072, -0.39188849925994873, 3.8121438026428223, 29.441892623901367, 1.8827500343322754, 
483, 519716677, -129.89707946777344, -84.92488098144531, -108.22927856445312, 10.027494430541992, -0.38193637132644653, -0.3913159966468811, 3.7916524410247803, 29.44407081604004, 1.8617463111877441, 
484, 519725010, -127.43474578857422, -85.10443115234375, -110.67448425292969, 10.037859916687012, -0.37897419929504395, -0.3852125406265259, 3.8025901317596436, 29.387210845947266, 1.7668458223342896, 
485, 519733343, -124.96427917480469, -85.24647521972656, -113.12287902832031, 10.017560005187988, -0.3979441225528717, -0.38764849305152893, 3.659149646759033, 29.15706443786621, 1.7197411060333252, 
486, 519741676, -122.18807220458984, -85.40518188476562, -115.88204193115234, 10.027242660522461, -0.38326531648635864, -0.3809065818786621, 3.7678568363189697, 29.055095672607422, 1.7255557775497437, 
487, 519750009, -119.43140411376953, -85.52595520019531, -118.61590576171875, 10.005860328674316, -0.3774771988391876, -0.3917890787124634, 3.7485947608947754, 28.84720802307129, 1.712005615234375, 
488, 519758342, -116.34568786621094, -85.65999603271484, -121.6789321899414, 10.02764892578125, -0.3835732936859131, -0.39738261699676514, 3.7884249687194824, 28.60077667236328, 1.7138497829437256, 
489, 519766675, -113.33610534667969, -85.75531768798828, -124.66495513916016, 10.010306358337402, -0.3716718256473541, -0.39737820625305176, 3.819289445877075, 28.286100387573242, 1.764770746231079, 
490, 519775008, -110.00138854980469, -85.86038208007812, -127.97512817382812, 9.999635696411133, -0.39720237255096436, -0.4022734761238098, 3.803025007247925, 27.82627296447754, 1.7141826152801514, 
491, 519783341, -106.8397216796875, -85.9286880493164, -131.11270141601562, 9.984858512878418, -0.37651681900024414, -0.4302566647529602, 3.806943416595459, 27.29400634765625, 1.6443836688995361, 
492, 519791674, -103.3399429321289, -86.00315856933594, -134.5861053466797, 9.992532730102539, -0.3990955054759979, -0.42528659105300903, 3.7972872257232666, 26.904003143310547, 1.6850080490112305, 
493, 519800007, -100.10456848144531, -86.0413589477539, -137.79888916015625, 9.983407020568848, -0.37255343794822693, -0.386344313621521, 3.615323305130005, 26.244359970092773, 1.8446102142333984, 
494, 519808340, -96.55363464355469, -86.08473205566406, -141.32716369628906, 9.956103324890137, -0.3887682557106018, -0.4013132154941559, 3.701284170150757, 25.81496238708496, 1.7521939277648926, 
495, 519816673, -93.35102844238281, -86.09756469726562, -144.5060577392578, 9.949591636657715, -0.38619059324264526, -0.4017084538936615, 3.712606191635132, 25.159954071044922, 1.6110849380493164, 
496, 519825006, -89.87833404541016, -86.11168670654297, -147.95465087890625, 9.949372291564941, -0.37445855140686035, -0.425588458776474, 3.6422693729400635, 24.528461456298828, 1.8116445541381836, 
497, 519833339, -86.84104919433594, -86.10022735595703, -150.96844482421875, 9.923209190368652, -0.3912197947502136, -0.40578049421310425, 3.6560752391815186, 23.70724105834961, 1.566157341003418, 
498, 519841672, -83.5653305053711, -86.08999633789062, -154.22021484375, 9.930959701538086, -0.38125619292259216, -0.43677979707717896, 3.6101741790771484, 23.036710739135742, 1.68277907371521, 
499, 519850005, -80.76179504394531, -86.05732727050781, -156.99990844726562, 9.924796104431152, -0.38026002049446106, -0.3995598554611206, 3.6407833099365234, 22.272123336791992, 1.6612375974655151, 
500, 519858338, -77.75354766845703, -86.02778625488281, -159.9832000732422, 9.917940139770508, -0.39402613043785095, -0.41095176339149475, 3.6581499576568604, 21.472219467163086, 1.588851809501648, 
501, 519866671, -75.2616195678711, -85.98092651367188, -162.4508056640625, 9.902661323547363, -0.3946363627910614, -0.42006492614746094, 3.6284117698669434, 20.48204803466797, 1.5550920963287354, 
502, 519875004, -72.57496643066406, -85.93692779541016, -165.11273193359375, 9.888143539428711, -0.39961859583854675, -0.4405618906021118, 3.5809483528137207, 19.717025756835938, 1.545384168624878, 
503, 519883337, -70.40959167480469, -85.87973022460938, -167.2538299560547, 9.878628730773926, -0.3864145278930664, -0.42307060956954956, 3.543499708175659, 18.667736053466797, 1.5994043350219727, 
504, 519891670, -68.06982421875, -85.82655334472656, -169.5689239501953, 9.871641159057617, -0.3825650215148926, -0.4216332733631134, 3.5105600357055664, 17.762197494506836, 1.5423873662948608, 
505, 519900003, -66.23175811767578, -85.76487731933594, -171.3818817138672, 9.867681503295898, -0.38648930191993713, -0.4214397668838501, 3.588581085205078, 16.66257667541504, 1.5268906354904175, 
506, 519908336, -64.23320007324219, -85.70783233642578, -173.35499572753906, 9.839448928833008, -0.3911803662776947, -0.4209430515766144, 3.531973123550415, 15.661725044250488, 1.5396462678909302, 
507, 519916669, -62.71107482910156, -85.64594268798828, -174.85263061523438, 9.84274673461914, -0.39570361375808716, -0.42294731736183167, 3.422600746154785, 14.535287857055664, 1.5200772285461426, 
508, 519925002, -61.032958984375, -85.58936309814453, -176.50575256347656, 9.821346282958984, -0.3908374309539795, -0.4140424132347107, 3.4071292877197266, 13.465943336486816, 1.5183866024017334, 
509, 519933335, -59.79975509643555, -85.53077697753906, -177.7142333984375, 9.819969177246094, -0.3901783525943756, -0.407951295375824, 3.395705461502075, 12.321551322937012, 1.4878543615341187, 
510, 519941668, -58.420833587646484, -85.4798355102539, -179.06776428222656, 9.824177742004395, -0.3835521936416626, -0.41557157039642334, 3.3646605014801025, 11.066015243530273, 1.4068362712860107, 
511, 519950001, -57.45178985595703, -85.428466796875, 179.98809814453125, 9.818671226501465, -0.3834759593009949, -0.441266804933548, 3.3158655166625977, 9.976719856262207, 1.3961039781570435, 
512, 519958334, -56.3355827331543, -85.38417053222656, 178.89756774902344, 9.81572437286377, -0.38821205496788025, -0.41604557633399963, 3.337996244430542, 8.779126167297363, 1.4090136289596558, 
513, 519966667, -55.60663986206055, -85.34112548828125, 178.19407653808594, 9.807047843933105, -0.37344616651535034, -0.42430803179740906, 3.3126120567321777, 7.627560138702393, 1.387420654296875, 
514, 519975000, -54.73495101928711, -85.30660247802734, 177.34933471679688, 9.794053077697754, -0.39082783460617065, -0.43631142377853394, 3.3946547508239746, 6.357786655426025, 1.3779947757720947, 
515, 519983333, -54.231536865234375, -85.27387237548828, 176.8714599609375, 9.790331840515137, -0.35516685247421265, -0.4304105341434479, 3.25687575340271, 5.182732582092285, 1.3798388242721558, 
516, 519991666, -53.58274841308594, -85.25071716308594, 176.2485809326172, 9.793339729309082, -0.36911383271217346, -0.4242197871208191, 3.19742488861084, 3.9331679344177246, 1.3042255640029907, 
517, 519999999, -53.28886413574219, -85.22989654541016, 175.9806671142578, 9.787205696105957, -0.39165395498275757, -0.3980371356010437, 3.216174840927124, 2.70266056060791, 1.3501776456832886, 
518, 520008332, -52.857765197753906, -85.21963500976562, 175.57601928710938, 9.79178237915039, -0.38010919094085693, -0.40731993317604065, 3.1871535778045654, 1.3807352781295776, 1.2524079084396362, 
519, 520016665, -52.766971588134766, -85.21185302734375, 175.51119995117188, 9.791345596313477, -0.38499167561531067, -0.44888776540756226, 3.147221326828003, 0.12622694671154022, 1.2554049491882324, 
520, 520024998, -52.53211212158203, -85.2147216796875, 175.3032684326172, 9.787890434265137, -0.37813884019851685, -0.44616812467575073, 3.153035879135132, -1.0312676429748535, 1.1766413450241089, 
521, 520033331, -52.631221771240234, -85.22029113769531, 175.4288787841797, 9.786718368530273, -0.3706746995449066, -0.44908469915390015, 3.1157665252685547, -2.343740701675415, 1.1675992012023926, 
522, 520041664, -52.61684799194336, -85.2365493774414, 175.44110107421875, 9.766946792602539, -0.39505961537361145, -0.430255264043808, 3.0479660034179688, -3.6762442588806152, 1.2126290798187256, 
523, 520049997, -52.92660903930664, -85.25468444824219, 175.77825927734375, 9.789349555969238, -0.37393710017204285, -0.4397641718387604, 3.134183645248413, -4.920097351074219, 1.245876431465149, 
524, 520058330, -53.124107360839844, -85.28416442871094, 176.0029754638672, 9.787956237792969, -0.3760109841823578, -0.4251174032688141, 3.049297571182251, -6.19788932800293, 1.2028956413269043, 
525, 520066663, -53.642127990722656, -85.3152084350586, 176.54800415039062, 9.785502433776855, -0.3749612271785736, -0.44699662923812866, 2.9918456077575684, -7.4663848876953125, 1.1523078680038452, 
526, 520074996, -54.05790328979492, -85.35751342773438, 176.99142456054688, 9.797567367553711, -0.3662663698196411, -0.44813936948776245, 3.027474880218506, -8.692025184631348, 1.1368367671966553, 
527, 520083329, -54.789878845214844, -85.40028381347656, 177.75079345703125, 9.796728134155273, -0.3744097948074341, -0.41785767674446106, 2.9935874938964844, -9.905731201171875, 1.041935920715332, 
528, 520091662, -55.440513610839844, -85.45399475097656, 178.4291534423828, 9.801949501037598, -0.37796613574028015, -0.4374983310699463, 2.954346179962158, -11.120100975036621, 1.1128618717193604, 
529, 520099995, -56.40719985961914, -85.50564575195312, 179.42355346679688, 9.799701690673828, -0.3823678195476532, -0.4114789068698883, 2.938004493713379, -12.211448669433594, 1.088989496231079, 
530, 520108328, -57.30792236328125, -85.57003784179688, -179.64813232421875, 9.811753273010254, -0.39002829790115356, -0.4174797832965851, 2.8731751441955566, -13.500717163085938, 0.958484947681427, 
531, 520116661, -58.5423698425293, -85.63018035888672, -178.38677978515625, 9.807615280151367, -0.39182034134864807, -0.40924373269081116, 2.7946417331695557, -14.634941101074219, 0.9889402389526367, 
532, 520124994, -59.73037338256836, -85.701171875, -177.1709442138672, 9.8375244140625, -0.3844793736934662, -0.4189371168613434, 2.8145692348480225, -15.761401176452637, 1.0536673069000244, 
533, 520133327, -61.26311492919922, -85.76580810546875, -175.6112518310547, 9.837821960449219, -0.38671520352363586, -0.4208753705024719, 2.7202067375183105, -16.904386520385742, 1.045727014541626, 
534, 520141660, -62.75019836425781, -85.84093475341797, -174.0966796875, 9.861725807189941, -0.38153335452079773, -0.41495782136917114, 2.738879919052124, -17.827808380126953, 0.9830489754676819, 
535, 520149993, -64.58786010742188, -85.90815734863281, -172.23158264160156, 9.856550216674805, -0.39556384086608887, -0.3945159912109375, 2.701559543609619, -18.968050003051758, 0.8724978566169739, 
536, 520158326, -66.44818115234375, -85.98384857177734, -170.343505859375, 9.86018180847168, -0.3858977258205414, -0.4059315323829651, 2.7101662158966064, -20.13401222229004, 1.047622561454773, 
537, 520166659, -68.62599182128906, -86.04710388183594, -168.13778686523438, 9.876954078674316, -0.37793853878974915, -0.4421542286872864, 2.7006125450134277, -20.85915184020996, 0.968090295791626, 
538, 520174992, -70.84420013427734, -86.11920166015625, -165.89102172851562, 9.872618675231934, -0.37729719281196594, -0.42030856013298035, 2.7702066898345947, -21.994991302490234, 0.9441410899162292, 
539, 520183325, -73.40373992919922, -86.17577362060547, -163.30325317382812, 9.87761402130127, -0.3858083188533783, -0.3875119686126709, 2.679532051086426, -22.89832878112793, 0.9160422682762146, 
540, 520191658, -75.99272155761719, -86.23886108398438, -160.68600463867188, 9.881709098815918, -0.39307698607444763, -0.4265904724597931, 2.6651628017425537, -23.69867706298828, 0.8535181283950806, 
541, 520199991, -78.9119644165039, -86.28179931640625, -157.7384490966797, 9.906219482421875, -0.37127333879470825, -0.4410370886325836, 2.6570684909820557, -24.60421371459961, 0.9424251317977905, 
542, 520208324, -81.88600158691406, -86.32992553710938, -154.73666381835938, 9.916253089904785, -0.3969115614891052, -0.3959079384803772, 2.5578129291534424, -25.4499454498291, 0.8553364872932434, 
543, 520216657, -85.1334457397461, -86.35395812988281, -151.46112060546875, 9.925710678100586, -0.39005398750305176, -0.44788607954978943, 2.5579159259796143, -26.207258224487305, 0.9528245329856873, 
544, 520224990, -88.39872741699219, -86.38139343261719, -148.16781616210938, 9.941786766052246, -0.38632264733314514, -0.42197179794311523, 2.5732083320617676, -26.739349365234375, 0.7723211050033569, 
545, 520233323, -91.87516784667969, -86.38280487060547, -144.6625213623047, 9.936017990112305, -0.3946668803691864, -0.4386020302772522, 2.583683729171753, -27.508281707763672, 0.7696569561958313, 
546, 520241656, -95.36956024169922, -86.38399505615234, -141.1406707763672, 9.966119766235352, -0.3825875520706177, -0.41448354721069336, 2.6660850048065186, -28.116647720336914, 0.7933245897293091, 
547, 520249989, -98.95829010009766, -86.3569107055664, -137.52345275878906, 9.968892097473145, -0.392912894487381, -0.4225693941116333, 2.4886553287506104, -28.635160446166992, 0.8037753105163574, 
548, 520258322, -102.53950500488281, -86.32949829101562, -133.9167938232422, 9.988073348999023, -0.4087567627429962, -0.4029562771320343, 2.4129137992858887, -29.223777770996094, 0.7319785356521606, 
549, 520266655, -106.1235580444336, -86.2721176147461, -130.30445861816406, 9.993342399597168, -0.38558217883110046, -0.40064337849617004, 2.4906017780303955, -29.76659393310547, 0.7241149544715881, 
550, 520274988, -109.6580810546875, -86.21297454833984, -126.74078369140625, 9.988680839538574, -0.4004563093185425, -0.41031017899513245, 2.5269229412078857, -30.289045333862305, 0.7824642062187195, 
551, 520283321, -113.07653045654297, -86.12535858154297, -123.29325866699219, 9.98920726776123, -0.39472824335098267, -0.4126083254814148, 2.5522043704986572, -30.537813186645508, 0.7024965882301331, 
552, 520291654, -116.42009735107422, -86.03641510009766, -119.928466796875, 9.98717975616455, -0.3812335431575775, -0.4231622517108917, 2.5455193519592285, -31.011375427246094, 0.7540581822395325, 
553, 520299987, -119.57903289794922, -85.91995239257812, -116.74015045166016, 10.001419067382812, -0.3779817521572113, -0.39527034759521484, 2.556891918182373, -31.22522735595703, 0.7356926798820496, 
554, 520308320, -122.63690948486328, -85.80357360839844, -113.65335845947266, 10.010577201843262, -0.3611801862716675, -0.3905331790447235, 2.4546139240264893, -31.49473762512207, 0.7599493265151978, 
555, 520316653, -125.47459411621094, -85.66189575195312, -110.78609466552734, 10.021052360534668, -0.37949633598327637, -0.4034444987773895, 2.5637567043304443, -31.71143913269043, 0.7561585307121277, 
556, 520324986, -128.20785522460938, -85.52254486083984, -108.02667236328125, 10.03571891784668, -0.37090539932250977, -0.4143603444099426, 2.4771549701690674, -31.798526763916016, 0.715816080570221, 
557, 520333319, -130.6977081298828, -85.3602066040039, -105.50811767578125, 10.0184326171875, -0.38756054639816284, -0.3957814574241638, 2.5007200241088867, -31.893810272216797, 0.7648161053657532, 
558, 520341652, -133.09996032714844, -85.2025375366211, -103.07585144042969, 10.021931648254395, -0.3836057484149933, -0.3999246656894684, 2.521390914916992, -31.913301467895508, 0.6863084435462952, 
559, 520349985, -135.25985717773438, -85.02389526367188, -100.88685607910156, 10.040376663208008, -0.40119361877441406, -0.4156506359577179, 2.5445196628570557, -31.954692840576172, 0.7694777846336365, 
560, 520358318, -137.34683227539062, -84.85147857666016, -98.77423095703125, 10.046804428100586, -0.3878318667411804, -0.4055625796318054, 2.342500925064087, -31.835487365722656, 0.7179164886474609, 
561, 520366651, -139.19346618652344, -84.66233825683594, -96.89952087402344, 10.04686164855957, -0.40998390316963196, -0.3740377426147461, 2.459583282470703, -31.580059051513672, 0.7510100603103638, 
562, 520374984, -140.9889373779297, -84.48029327392578, -95.0760726928711, 10.051146507263184, -0.38631778955459595, -0.3756456971168518, 2.466575860977173, -31.48953628540039, 0.7536225318908691, 
563, 520383317, -142.579345703125, -84.28348541259766, -93.45765686035156, 10.046353340148926, -0.38613077998161316, -0.36855727434158325, 2.4292304515838623, -31.292104721069336, 0.6761139631271362, 
564, 520391650, -144.13461303710938, -84.09452819824219, -91.87494659423828, 10.025334358215332, -0.3773646652698517, -0.4045104682445526, 2.454460620880127, -31.123027801513672, 0.6926350593566895, 
565, 520399983, -145.48980712890625, -83.8927993774414, -90.49202728271484, 10.042680740356445, -0.36674758791923523, -0.3661760985851288, 2.4153220653533936, -30.77126693725586, 0.7682228088378906, 
566, 520408316, -146.81390380859375, -83.70195007324219, -89.14026641845703, 10.048906326293945, -0.37841421365737915, -0.34935247898101807, 2.5292537212371826, -30.251392364501953, 0.7754203081130981, 
567, 520416649, -147.9684600830078, -83.50013732910156, -87.9576416015625, 10.040054321289062, -0.3658750355243683, -0.3661062717437744, 2.494264841079712, -29.89740562438965, 0.7345142960548401, 
568, 520424982, -149.1092071533203, -83.3091812133789, -86.78941345214844, 10.046064376831055, -0.36581069231033325, -0.3473215699195862, 2.5406010150909424, -29.464855194091797, 0.798703670501709, 
569, 520433315, -150.08412170410156, -83.10943603515625, -85.78610229492188, 10.025647163391113, -0.37270814180374146, -0.3395889401435852, 2.5408055782318115, -28.86673927307129, 0.8728312253952026, 
570, 520441648, -151.06451416015625, -82.9222183227539, -84.77900695800781, 10.028349876403809, -0.3863255977630615, -0.3419933319091797, 2.4925999641418457, -28.339570999145508, 0.8001124858856201, 
571, 520449981, -151.90280151367188, -82.72759246826172, -83.91311645507812, 10.026535034179688, -0.393900066614151, -0.33710047602653503, 2.4873743057250977, -27.70454216003418, 0.7660710215568542, 
572, 520458314, -152.7421112060547, -82.54625701904297, -83.0474624633789, 10.029764175415039, -0.3903968036174774, -0.3652757704257965, 2.5316359996795654, -27.03014373779297, 0.8541840314865112, 
573, 520466647, -153.4561004638672, -82.35840606689453, -82.30603790283203, 10.02811336517334, -0.39079150557518005, -0.3396224081516266, 2.5105042457580566, -26.38023567199707, 0.803160548210144, 
574, 520474980, -154.17352294921875, -82.18606567382812, -81.56193542480469, 9.990020751953125, -0.38088667392730713, -0.36024031043052673, 2.568699359893799, -25.51605796813965, 0.9005200862884521, 
575, 520483313, -154.77944946289062, -82.00812530517578, -80.9277572631836, 10.00986099243164, -0.38953956961631775, -0.36968928575515747, 2.652355194091797, -24.769603729248047, 0.7856658101081848, 
576, 520491646, -155.40052795410156, -81.84563446044922, -80.27999877929688, 9.99968433380127, -0.3839802145957947, -0.3222077786922455, 2.642544984817505, -23.97169303894043, 0.837406575679779, 
577, 520499979, -155.91004943847656, -81.67874145507812, -79.74275207519531, 10.005447387695312, -0.3771648705005646, -0.3459387719631195, 2.6397531032562256, -23.054779052734375, 0.8755974173545837, 
578, 520508312, -156.44017028808594, -81.52845001220703, -79.18631744384766, 9.97049331665039, -0.39958685636520386, -0.3600755035877228, 2.6515352725982666, -22.18586540222168, 0.8813092708587646, 
579, 520516645, -156.8668975830078, -81.37379455566406, -78.73104095458984, 9.988809585571289, -0.3912069797515869, -0.33881497383117676, 2.8081157207489014, -21.254844665527344, 0.9332038760185242, 
580, 520524978, -157.31533813476562, -81.23641967773438, -78.2560043334961, 9.978569984436035, -0.3825807571411133, -0.35544463992118835, 2.749612331390381, -20.341873168945312, 0.9832539558410645, 
581, 520533311, -157.66793823242188, -81.09576416015625, -77.87501525878906, 9.967830657958984, -0.3777408301830292, -0.3504963517189026, 2.8664133548736572, -19.274988174438477, 1.0087401866912842, 
582, 520541644, -158.04550170898438, -80.97439575195312, -77.47123718261719, 9.964529991149902, -0.37352779507637024, -0.34430769085884094, 2.7519168853759766, -18.21681022644043, 0.9992883801460266, 
583, 520549977, -158.33657836914062, -80.8501968383789, -77.15313720703125, 9.967039108276367, -0.39452773332595825, -0.33028391003608704, 2.7456932067871094, -17.077899932861328, 0.9798216223716736, 
584, 520558310, -158.64756774902344, -80.74494171142578, -76.81604766845703, 9.952885627746582, -0.3809678256511688, -0.3109409213066101, 2.8174893856048584, -16.059934616088867, 1.1005926132202148, 
585, 520566643, -158.87725830078125, -80.6366195678711, -76.55931854248047, 9.953327178955078, -0.38131487369537354, -0.3414471745491028, 2.841310739517212, -14.915850639343262, 1.099696159362793, 
586, 520574976, -159.13661193847656, -80.5482406616211, -76.27410888671875, 9.938477516174316, -0.38801488280296326, -0.3495529294013977, 2.8339085578918457, -13.91973876953125, 1.0626323223114014, 
587, 520583309, -159.32089233398438, -80.45733642578125, -76.06300354003906, 9.94749927520752, -0.3874170482158661, -0.34547436237335205, 2.860649585723877, -12.685694694519043, 1.003309726715088, 
588, 520591642, -159.5214385986328, -80.38841247558594, -75.83674621582031, 9.915596008300781, -0.3888664245605469, -0.3227199614048004, 2.899838924407959, -11.409618377685547, 1.1511038541793823, 
589, 520599975, -159.65719604492188, -80.31597137451172, -75.67479705810547, 9.940655708312988, -0.392381489276886, -0.3387172520160675, 2.873046636581421, -10.280978202819824, 1.020829677581787, 
590, 520608308, -159.8133544921875, -80.26548767089844, -75.49256134033203, 9.941624641418457, -0.38761457800865173, -0.34343165159225464, 3.0020649433135986, -9.108434677124023, 1.1027439832687378, 
591, 520616641, -159.89984130859375, -80.21243286132812, -75.37995147705078, 9.934086799621582, -0.36792728304862976, -0.3161449134349823, 2.9276299476623535, -7.7801313400268555, 1.090705394744873, 
592, 520624974, -160.00608825683594, -80.1819839477539, -75.24874114990234, 9.93136215209961, -0.3884814381599426, -0.3322107791900635, 2.9559085369110107, -6.561867713928223, 1.1843255758285522, 
593, 520633307, -160.04856872558594, -80.14796447753906, -75.17977905273438, 9.936763763427734, -0.38744422793388367, -0.32329097390174866, 3.043508768081665, -5.331846237182617, 1.1181893348693848, 
594, 520641640, -160.10787963867188, -80.13831329345703, -75.09476470947266, 9.91877269744873, -0.387774795293808, -0.3414943218231201, 3.11794376373291, -3.963251829147339, 1.1938282251358032, 
595, 520649973, -160.1038055419922, -80.12337493896484, -75.07245635986328, 9.909867286682129, -0.3912617564201355, -0.32118576765060425, 3.1153314113616943, -2.860380172729492, 1.2349393367767334, 
596, 520658306, -160.12203979492188, -80.13250732421875, -75.02861785888672, 9.920763969421387, -0.39701613783836365, -0.32130008935928345, 3.167558431625366, -1.619344711303711, 1.211476445198059, 
597, 520666639, -160.07846069335938, -80.13753509521484, -75.04722595214844, 9.916021347045898, -0.39499813318252563, -0.31703099608421326, 3.0240423679351807, -0.3210616409778595, 1.2091712951660156, 
598, 520674972, -160.0518035888672, -80.1677474975586, -75.04862213134766, 9.922473907470703, -0.3790720999240875, -0.3588537871837616, 3.1992433071136475, 1.0025923252105713, 1.2159333229064941, 
599, 520683305, -159.9604949951172, -80.19171142578125, -75.11444091796875, 9.932029724121094, -0.3756839632987976, -0.32260897755622864, 3.1750380992889404, 2.1463449001312256, 1.337780237197876, 
600, 520691638, -159.8844757080078, -80.24150085449219, -75.16571044921875, 9.925628662109375, -0.3911363184452057, -0.33309006690979004, 3.209028482437134, 3.4881467819213867, 1.3513046503067017, 
601, 520699971, -159.7423095703125, -80.2847900390625, -75.28193664550781, 9.931855201721191, -0.3863610029220581, -0.3278334140777588, 3.314866304397583, 4.669040203094482, 1.478069543838501, 
602, 520708304, -159.61849975585938, -80.35429382324219, -75.38143157958984, 9.935908317565918, -0.3957383930683136, -0.329581081867218, 3.223064661026001, 5.969627857208252, 1.4012778997421265, 
603, 520716637, -159.4387664794922, -80.41636657714844, -75.53605651855469, 9.939003944396973, -0.3774668276309967, -0.3476613461971283, 3.2754719257354736, 7.0384345054626465, 1.3576571941375732, 
604, 520724970, -159.2708282470703, -80.50504302978516, -75.6793212890625, 9.929251670837402, -0.39871326088905334, -0.3447307348251343, 3.311920642852783, 8.34980583190918, 1.3230009078979492, 
