sep=,
PacketCounter,SampleTimeFine,Euler_X,Euler_Y,Euler_Z,Acc_X,Acc_Y,Acc_Z,Gyr_X,Gyr_Y,Gyr_Z,
0, 2236170008, -93.55262756347656, -66.09916687011719, -166.63400268554688, 0, 0, 0, 0, 0, 0, 
1, 2236178341, -93.72943115234375, -66.08697509765625, -166.44381713867188, 9.053582191467285, -4.006526947021484, -0.2566002607345581, -0.3528873920440674, -9.324480056762695, 0.8739705681800842, 
2, 2236186674, -93.91482543945312, -66.08871459960938, -166.2294921875, 9.071125030517578, -4.00944185256958, -0.2636150121688843, -0.456548273563385, -9.596553802490234, 0.8088080286979675, 
3, 2236195007, -94.09760284423828, -66.07472229003906, -166.03355407714844, 9.063043594360352, -4.008829593658447, -0.26032382249832153, -0.44084659218788147, -9.627776145935059, 1.0070874691009521, 
4, 2236203340, -94.25765991210938, -66.06851959228516, -165.8665008544922, 9.087983131408691, -4.010124206542969, -0.2534729540348053, -0.5281398892402649, -9.613021850585938, 0.9288873672485352, 
5, 2236211673, -94.4430160522461, -66.05498504638672, -165.66873168945312, 9.07266902923584, -4.0149407386779785, -0.24973273277282715, -0.5530625581741333, -9.726161003112793, 0.8913370370864868, 
6, 2236220006, -94.55609130859375, -66.0496597290039, -165.52078247070312, 9.066507339477539, -4.012434482574463, -0.248447448015213, -0.5516281723976135, -9.88192081451416, 0.8765063881874084, 
7, 2236228339, -94.74729919433594, -66.03561401367188, -165.31768798828125, 9.058091163635254, -4.017197132110596, -0.27443644404411316, -0.6746534109115601, -9.999924659729004, 0.8807070255279541, 
8, 2236236672, -94.84503936767578, -66.0265884399414, -165.18312072753906, 9.066967964172363, -4.016551494598389, -0.25157734751701355, -0.6451201438903809, -9.957380294799805, 0.877223551273346, 
9, 2236245005, -95.03802490234375, -66.01296997070312, -164.97799682617188, 9.04979133605957, -4.015737533569336, -0.25735846161842346, -0.6643820405006409, -10.108198165893555, 0.7625998854637146, 
10, 2236253338, -95.12120056152344, -66.00251007080078, -164.86126708984375, 9.067645072937012, -4.020511150360107, -0.2513108253479004, -0.6386653780937195, -10.065728187561035, 0.8688989281654358, 
11, 2236261671, -95.31446075439453, -65.98680877685547, -164.65594482421875, 9.05772876739502, -4.016209125518799, -0.25773099064826965, -0.6885363459587097, -10.152714729309082, 0.9661051034927368, 
12, 2236270004, -95.38943481445312, -65.9757080078125, -164.54112243652344, 9.046244621276855, -4.021059989929199, -0.2526012659072876, -0.620197594165802, -10.098746299743652, 0.9178478717803955, 
13, 2236278337, -95.58146667480469, -65.96034240722656, -164.33673095703125, 9.043978691101074, -4.020413875579834, -0.24789761006832123, -0.6468619704246521, -10.116828918457031, 0.8837295770645142, 
14, 2236286670, -95.6518325805664, -65.94830322265625, -164.23362731933594, 9.044514656066895, -4.019821643829346, -0.20699730515480042, -0.6206329464912415, -10.171029090881348, 0.8882888555526733, 
15, 2236295003, -95.84481048583984, -65.9328384399414, -164.0279541015625, 9.050419807434082, -4.0154218673706055, -0.2428826540708542, -0.6245775818824768, -10.197335243225098, 0.8407745361328125, 
16, 2236303336, -95.90648651123047, -65.9218978881836, -163.93711853027344, 9.049480438232422, -4.02565336227417, -0.25852012634277344, -0.7149190306663513, -10.223565101623535, 0.8322449922561646, 
17, 2236311669, -96.09790802001953, -65.90478515625, -163.73301696777344, 9.06527328491211, -4.036062240600586, -0.26376649737358093, -0.6172006726264954, -10.15671157836914, 1.0013245344161987, 
18, 2236320002, -96.1598129272461, -65.89237213134766, -163.6377716064453, 9.067537307739258, -4.0099196434021, -0.23696543276309967, -0.6308530569076538, -10.073183059692383, 0.960623562335968, 
19, 2236328335, -96.35088348388672, -65.87540435791016, -163.43508911132812, 9.054496765136719, -4.029458522796631, -0.228262796998024, -0.7328233122825623, -10.101025581359863, 0.9442816972732544, 
20, 2236336668, -96.407470703125, -65.86454772949219, -163.350830078125, 9.062265396118164, -4.039844512939453, -0.25526511669158936, -0.6903036236763, -9.912606239318848, 0.9207934141159058, 
21, 2236345001, -96.5940933227539, -65.84764862060547, -163.15272521972656, 9.068036079406738, -4.026459693908691, -0.23781952261924744, -0.7019068598747253, -9.891397476196289, 0.9128528833389282, 
22, 2236353334, -96.6516342163086, -65.83696746826172, -163.048095703125, 9.050047874450684, -4.007489204406738, -0.2211955487728119, -0.6104896664619446, -9.9408597946167, 0.8946924805641174, 
23, 2236361667, -96.83380126953125, -65.82005310058594, -162.85443115234375, 9.066944122314453, -4.0214972496032715, -0.24799272418022156, -0.6575942635536194, -9.691683769226074, 0.8959220051765442, 
24, 2236370000, -96.88642120361328, -65.81021881103516, -162.7638397216797, 9.084030151367188, -4.026401519775391, -0.2692491114139557, -0.65826016664505, -9.662381172180176, 0.9418482780456543, 
25, 2236378333, -97.06550598144531, -65.79158782958984, -162.57186889648438, 9.091707229614258, -4.024143695831299, -0.251562237739563, -0.4816756844520569, -9.646628379821777, 1.0742738246917725, 
26, 2236386666, -97.11792755126953, -65.7822036743164, -162.48800659179688, 9.074803352355957, -4.001601696014404, -0.25436103343963623, -0.47557950019836426, -9.54171371459961, 0.9677187204360962, 
27, 2236394999, -97.28998565673828, -65.76380920410156, -162.30284118652344, 9.08080005645752, -3.9883172512054443, -0.27678629755973816, -0.38316336274147034, -9.32568359375, 1.0479170083999634, 
28, 2236403332, -97.34039306640625, -65.75653839111328, -162.2139892578125, 9.080353736877441, -4.013411045074463, -0.27628862857818604, -0.5053433179855347, -9.212288856506348, 0.9295535683631897, 
29, 2236411665, -97.50873565673828, -65.73907470703125, -162.03253173828125, 9.065899848937988, -4.021944999694824, -0.26430243253707886, -0.35283616185188293, -9.143924713134766, 0.9244050979614258, 
30, 2236419998, -97.55501556396484, -65.73234558105469, -161.95159912109375, 9.094765663146973, -4.017800807952881, -0.2685163915157318, -0.1807340532541275, -8.960756301879883, 0.9040929675102234, 
31, 2236428331, -97.71548461914062, -65.71495056152344, -161.77671813964844, 9.092494010925293, -4.013446807861328, -0.3079580068588257, -0.13073506951332092, -8.833121299743652, 0.9243793487548828, 
32, 2236436664, -97.75668334960938, -65.70880126953125, -161.68795776367188, 9.100669860839844, -3.9983150959014893, -0.28690487146377563, -0.06260119378566742, -8.521907806396484, 0.9296046495437622, 
33, 2236444997, -97.90692901611328, -65.69205474853516, -161.52352905273438, 9.079367637634277, -3.988481283187866, -0.2692809998989105, -0.05015266686677933, -8.321910858154297, 0.8852663040161133, 
34, 2236453330, -97.94377136230469, -65.68675994873047, -161.44696044921875, 9.081167221069336, -4.004332065582275, -0.29707071185112, 0.0031377437990158796, -8.168123245239258, 0.9627750515937805, 
35, 2236461663, -98.08401489257812, -65.66914367675781, -161.29124450683594, 9.064453125, -3.9964187145233154, -0.2955883741378784, 0.18594656884670258, -7.921229362487793, 1.0270414352416992, 
36, 2236469996, -98.11469268798828, -65.66373443603516, -161.2212677001953, 9.073466300964355, -4.016232490539551, -0.2900536060333252, 0.31604132056236267, -7.795412063598633, 1.035058617591858, 
37, 2236478329, -98.24609375, -65.64632415771484, -161.07327270507812, 9.086642265319824, -4.012217998504639, -0.27860385179519653, 0.40517884492874146, -7.5498223304748535, 1.0311907529830933, 
38, 2236486662, -98.26801300048828, -65.64154052734375, -160.99571228027344, 9.080476760864258, -4.008108139038086, -0.28438809514045715, 0.633094310760498, -7.347187519073486, 1.0100845098495483, 
39, 2236494995, -98.39037322998047, -65.62418365478516, -160.8559112548828, 9.059196472167969, -4.022154808044434, -0.2958345115184784, 0.5957742929458618, -7.157001972198486, 1.058982253074646, 
40, 2236503328, -98.40510559082031, -65.61902618408203, -160.80294799804688, 9.063708305358887, -4.034743309020996, -0.27420350909233093, 0.6862182021141052, -6.870455265045166, 1.092716097831726, 
41, 2236511661, -98.51665496826172, -65.60264587402344, -160.67384338378906, 9.065804481506348, -4.019632816314697, -0.295482337474823, 0.721924364566803, -6.626172065734863, 1.0033479928970337, 
42, 2236519994, -98.52215576171875, -65.59799194335938, -160.6255340576172, 9.061458587646484, -4.024827003479004, -0.24126110970973969, 0.9095741510391235, -6.3645219802856445, 1.0502731800079346, 
43, 2236528327, -98.6227798461914, -65.58216857910156, -160.50502014160156, 9.072866439819336, -4.0224928855896, -0.2878904640674591, 1.0853136777877808, -6.2027435302734375, 0.9907970428466797, 
44, 2236536660, -98.62163543701172, -65.57750701904297, -160.46981811523438, 9.066226959228516, -4.038580417633057, -0.2694839537143707, 1.09650719165802, -6.038941383361816, 1.066051721572876, 
45, 2236544993, -98.71470642089844, -65.56149291992188, -160.3566131591797, 9.035473823547363, -4.028860092163086, -0.285866916179657, 1.1870533227920532, -5.8523406982421875, 1.0583418607711792, 
46, 2236553326, -98.70232391357422, -65.55713653564453, -160.32028198242188, 9.053631782531738, -4.013946533203125, -0.2844626009464264, 1.3493194580078125, -5.456062316894531, 1.061543583869934, 
47, 2236561659, -98.78421783447266, -65.54148864746094, -160.2182159423828, 9.072161674499512, -4.044919490814209, -0.2721010446548462, 1.3129985332489014, -5.306756973266602, 1.0874906778335571, 
48, 2236569992, -98.7645034790039, -65.53724670410156, -160.1950225830078, 9.065075874328613, -4.020619869232178, -0.2919645309448242, 1.5267748832702637, -5.045185089111328, 1.075528860092163, 
49, 2236578325, -98.83467864990234, -65.5224380493164, -160.1036834716797, 9.054393768310547, -4.009308338165283, -0.25490033626556396, 1.545549988746643, -4.771368503570557, 1.0668200254440308, 
50, 2236586658, -98.80461883544922, -65.51811218261719, -160.08779907226562, 9.059401512145996, -4.003574371337891, -0.2825384736061096, 1.859631896018982, -4.554518699645996, 1.1611061096191406, 
51, 2236594991, -98.86302185058594, -65.50385284423828, -160.0061798095703, 9.064969062805176, -4.008734703063965, -0.2745486795902252, 1.8935706615447998, -4.287336349487305, 1.0697656869888306, 
52, 2236603324, -98.82295227050781, -65.5003662109375, -159.99588012695312, 9.084620475769043, -4.021536350250244, -0.27321359515190125, 1.9441332817077637, -3.9381885528564453, 1.1615415811538696, 
53, 2236611657, -98.86905670166016, -65.48626708984375, -159.9265899658203, 9.064603805541992, -4.0026631355285645, -0.26614394783973694, 2.024792432785034, -3.684326171875, 1.140665888786316, 
54, 2236619990, -98.81659698486328, -65.4832992553711, -159.92999267578125, 9.069098472595215, -4.019068717956543, -0.27007243037223816, 2.1944353580474854, -3.2831809520721436, 1.2050857543945312, 
55, 2236628323, -98.84930419921875, -65.46912384033203, -159.8728790283203, 9.07003402709961, -3.9805150032043457, -0.2529715597629547, 2.3048837184906006, -3.0901262760162354, 1.2420724630355835, 
56, 2236636656, -98.78731536865234, -65.46720886230469, -159.88548278808594, 9.079813957214355, -4.004342079162598, -0.2581726908683777, 2.4152557849884033, -2.765901565551758, 1.1707112789154053, 
57, 2236644989, -98.80683898925781, -65.45423126220703, -159.84030151367188, 9.079366683959961, -3.991441488265991, -0.2822657823562622, 2.573474884033203, -2.479534864425659, 1.2008850574493408, 
58, 2236653322, -98.73409271240234, -65.45364379882812, -159.8535919189453, 9.082608222961426, -4.011168003082275, -0.27831706404685974, 2.645630359649658, -2.160074234008789, 1.1159738302230835, 
59, 2236661655, -98.74137878417969, -65.44116973876953, -159.81903076171875, 9.069944381713867, -3.992487668991089, -0.26941221952438354, 2.8801028728485107, -1.9478600025177002, 1.2203516960144043, 
60, 2236669988, -98.65696716308594, -65.44125366210938, -159.8538818359375, 9.07323932647705, -3.999831199645996, -0.28872132301330566, 2.9281554222106934, -1.5315264463424683, 1.134416103363037, 
61, 2236678321, -98.64871215820312, -65.42971801757812, -159.83377075195312, 9.086641311645508, -4.008943557739258, -0.29533252120018005, 3.173923969268799, -1.222593069076538, 1.220018982887268, 
62, 2236686654, -98.55264282226562, -65.42976379394531, -159.87771606445312, 9.070906639099121, -4.0269389152526855, -0.2717024087905884, 3.2543785572052, -0.9129682183265686, 1.2247575521469116, 
63, 2236694987, -98.53194427490234, -65.41869354248047, -159.86949157714844, 9.071637153625488, -3.9885685443878174, -0.30595794320106506, 3.3685920238494873, -0.626447319984436, 1.2577228546142578, 
64, 2236703320, -98.42626190185547, -65.41879272460938, -159.9220428466797, 9.071956634521484, -4.012475490570068, -0.26032641530036926, 3.53493070602417, -0.38777387142181396, 1.2871280908584595, 
65, 2236711653, -98.39374542236328, -65.40900421142578, -159.9238739013672, 9.083334922790527, -4.008996486663818, -0.29435938596725464, 3.689819812774658, -0.10670888423919678, 1.177396535873413, 
66, 2236719986, -98.2771224975586, -65.40992736816406, -159.9880828857422, 9.055174827575684, -4.006722927093506, -0.2920263409614563, 3.874677896499634, 0.19101814925670624, 1.2533940076828003, 
67, 2236728319, -98.2290267944336, -65.40056610107422, -160.00474548339844, 9.072244644165039, -4.012221336364746, -0.27221253514289856, 3.9403271675109863, 0.6351177096366882, 1.2332613468170166, 
68, 2236736652, -98.0994873046875, -65.40264129638672, -160.07247924804688, 9.073511123657227, -4.023268699645996, -0.29106414318084717, 4.032872200012207, 0.9740453958511353, 1.2008850574493408, 
69, 2236744985, -98.04003143310547, -65.393798828125, -160.0989227294922, 9.089465141296387, -4.014405727386475, -0.2863832116127014, 4.232073783874512, 1.1288578510284424, 1.2405613660812378, 
70, 2236753318, -97.89961242675781, -65.39511108398438, -160.1834716796875, 9.064849853515625, -4.030759334564209, -0.30618247389793396, 4.3562517166137695, 1.545166015625, 1.3409948348999023, 
71, 2236761651, -97.82788848876953, -65.38589477539062, -160.2212371826172, 9.076560974121094, -4.034487724304199, -0.28230082988739014, 4.464471817016602, 1.6872482299804688, 1.3610509634017944, 
72, 2236769984, -97.68093872070312, -65.3873291015625, -160.3080596923828, 9.047505378723145, -4.021723747253418, -0.2896443009376526, 4.592926502227783, 1.9405726194381714, 1.3339252471923828, 
73, 2236778317, -97.59849548339844, -65.3797607421875, -160.35585021972656, 9.058323860168457, -4.025452613830566, -0.277812659740448, 4.657960891723633, 2.213543653488159, 1.2268834114074707, 
74, 2236786650, -97.44391632080078, -65.38147735595703, -160.45355224609375, 9.049838066101074, -4.040029048919678, -0.27700313925743103, 4.726710319519043, 2.439896821975708, 1.320016860961914, 
75, 2236794983, -97.34883880615234, -65.37301635742188, -160.5131072998047, 9.056142807006836, -4.012674331665039, -0.25483670830726624, 4.889155387878418, 2.7869951725006104, 1.3959373235702515, 
76, 2236803316, -97.18547058105469, -65.3746337890625, -160.6201171875, 9.057476997375488, -4.0204176902771, -0.2704525589942932, 4.967381954193115, 2.9305121898651123, 1.3562098741531372, 
77, 2236811649, -97.08133697509766, -65.36674499511719, -160.68832397460938, 9.07448673248291, -4.025001049041748, -0.29745298624038696, 5.037103652954102, 3.2286362648010254, 1.3699647188186646, 
78, 2236819982, -96.90849304199219, -65.36807250976562, -160.80288696289062, 9.059416770935059, -4.04099702835083, -0.2578849196434021, 5.117711067199707, 3.521918773651123, 1.4143794775009155, 
79, 2236828315, -96.7918701171875, -65.36109924316406, -160.88223266601562, 9.072604179382324, -4.0145416259765625, -0.29341527819633484, 5.3128662109375, 3.801933526992798, 1.3121275901794434, 
80, 2236836648, -96.61214447021484, -65.36203002929688, -160.99766540527344, 9.049424171447754, -4.007215976715088, -0.2950398921966553, 5.516576290130615, 3.849012613296509, 1.4523142576217651, 
81, 2236844981, -96.49024963378906, -65.35414123535156, -161.08154296875, 9.075885772705078, -4.044583320617676, -0.2839007079601288, 5.45628023147583, 4.019731521606445, 1.4284930229187012, 
82, 2236853314, -96.30241394042969, -65.35533142089844, -161.20494079589844, 9.074533462524414, -4.002509117126465, -0.26883959770202637, 5.6247453689575195, 4.400640964508057, 1.4295177459716797, 
83, 2236861647, -96.16971588134766, -65.34857940673828, -161.2992706298828, 9.082193374633789, -4.016397476196289, -0.29633641242980957, 5.6126556396484375, 4.560499668121338, 1.3285465240478516, 
84, 2236869980, -95.97492980957031, -65.35016632080078, -161.43284606933594, 9.094303131103516, -4.000332355499268, -0.29388609528541565, 5.776151657104492, 4.863208770751953, 1.3925564289093018, 
85, 2236878313, -95.83078002929688, -65.34342956542969, -161.53695678710938, 9.072196006774902, -4.023860931396484, -0.2708960175514221, 5.920538902282715, 5.053471565246582, 1.3498833179473877, 
86, 2236886646, -95.63143157958984, -65.34400939941406, -161.6715087890625, 9.071830749511719, -4.00826358795166, -0.28830593824386597, 6.009727954864502, 5.1442999839782715, 1.4953720569610596, 
87, 2236894979, -95.4800033569336, -65.33724212646484, -161.78189086914062, 9.103529930114746, -3.9831371307373047, -0.2678961157798767, 6.102143287658691, 5.371701717376709, 1.357234239578247, 
88, 2236903312, -95.27430725097656, -65.3384780883789, -161.92025756835938, 9.069934844970703, -4.005338191986084, -0.2804262638092041, 6.065130233764648, 5.623387336730957, 1.4181448221206665, 
89, 2236911645, -95.11304473876953, -65.33137512207031, -162.04075622558594, 9.088364601135254, -4.00999641418457, -0.2868463695049286, 6.176860332489014, 5.881425857543945, 1.4101531505584717, 
90, 2236919978, -94.90269470214844, -65.33247375488281, -162.18319702148438, 9.098877906799316, -4.0184645652771, -0.30134785175323486, 6.269199371337891, 5.934652328491211, 1.4099483489990234, 
91, 2236928311, -94.7366943359375, -65.32503509521484, -162.30740356445312, 9.080302238464355, -4.003782749176025, -0.28921085596084595, 6.346271991729736, 6.071789741516113, 1.42406165599823, 
92, 2236936644, -94.52055358886719, -65.3261947631836, -162.46560668945312, 9.079331398010254, -4.024263858795166, -0.2785724699497223, 6.455645561218262, 6.324525833129883, 1.3897387981414795, 
93, 2236944977, -94.3460922241211, -65.31849670410156, -162.59767150878906, 9.066232681274414, -4.009664535522461, -0.26618826389312744, 6.4996771812438965, 6.4690680503845215, 1.4472941160202026, 
94, 2236953310, -94.12569427490234, -65.31926727294922, -162.752197265625, 9.073204040527344, -3.990889549255371, -0.28758031129837036, 6.558794021606445, 6.65792179107666, 1.3922491073608398, 
95, 2236961643, -93.9430923461914, -65.3106918334961, -162.89151000976562, 9.084498405456543, -4.030092239379883, -0.2799360752105713, 6.689067363739014, 6.833992958068848, 1.5304632186889648, 
96, 2236969976, -93.72217559814453, -65.31047058105469, -163.0990447998047, 9.06601619720459, -4.015420913696289, -0.26495814323425293, 6.670344829559326, 6.7804856300354, 1.4612538814544678, 
97, 2236978309, -93.53614807128906, -65.30265045166016, -163.2416534423828, 9.068401336669922, -4.021631717681885, -0.26288601756095886, 6.743114471435547, 7.015035152435303, 1.4050049781799316, 
98, 2236986642, -93.31202697753906, -65.3025894165039, -163.38607788085938, 9.068196296691895, -4.0380120277404785, -0.23832926154136658, 6.8493876457214355, 7.018518447875977, 1.3889703750610352, 
99, 2236994975, -93.1229019165039, -65.29411315917969, -163.53114318847656, 9.069439888000488, -4.0213623046875, -0.26575902104377747, 6.840575695037842, 7.1471781730651855, 1.4397376775741577, 
100, 2237003308, -92.89986419677734, -65.29226684570312, -163.6901092529297, 9.055163383483887, -4.029296875, -0.2661284804344177, 6.875488758087158, 7.082579612731934, 1.5366877317428589, 
101, 2237011641, -92.70870971679688, -65.28321838378906, -163.83680725097656, 9.052340507507324, -4.042572021484375, -0.25600293278694153, 6.909555435180664, 7.2317328453063965, 1.4628418684005737, 
102, 2237019974, -92.48595428466797, -65.28053283691406, -163.96009826660156, 9.067733764648438, -4.0490617752075195, -0.2504217028617859, 6.890857219696045, 7.2040934562683105, 1.5721123218536377, 
103, 2237028307, -92.29278564453125, -65.27094268798828, -164.1088409423828, 9.070508003234863, -4.035294532775879, -0.24866342544555664, 6.926166534423828, 7.3462653160095215, 1.4802467823028564, 
104, 2237036640, -92.06815338134766, -65.26900482177734, -164.29244995117188, 9.07508659362793, -4.021606922149658, -0.24819549918174744, 6.888218879699707, 7.455292224884033, 1.4218591451644897, 
105, 2237044973, -91.87257385253906, -65.25845336914062, -164.44345092773438, 9.045957565307617, -4.013263702392578, -0.2609710991382599, 6.971798419952393, 7.468048572540283, 1.5459856986999512, 
106, 2237053306, -91.64946746826172, -65.2554702758789, -164.57382202148438, 9.075345993041992, -4.029935359954834, -0.22587667405605316, 6.933043956756592, 7.4933552742004395, 1.4841527938842773, 
107, 2237061639, -91.45586395263672, -65.2444076538086, -164.72357177734375, 9.06652545928955, -4.0255584716796875, -0.2337654083967209, 6.868368625640869, 7.419663429260254, 1.5510830879211426, 
108, 2237069972, -91.236083984375, -65.24060821533203, -164.86105346679688, 9.057909965515137, -4.015659332275391, -0.24032004177570343, 6.946888446807861, 7.439526557922363, 1.5244313478469849, 
109, 2237078305, -91.04265594482422, -65.22896575927734, -165.01077270507812, 9.05492115020752, -4.004022121429443, -0.2452411651611328, 6.8576483726501465, 7.42802619934082, 1.5676935911178589, 
110, 2237086638, -90.82728576660156, -65.2249526977539, -165.1325225830078, 9.062085151672363, -4.020361423492432, -0.25688573718070984, 6.947066783905029, 7.340014934539795, 1.4890323877334595, 
111, 2237094971, -90.63740539550781, -65.21346282958984, -165.27792358398438, 9.086955070495605, -4.023274898529053, -0.24814458191394806, 6.896953582763672, 7.225712776184082, 1.4958842992782593, 
112, 2237103304, -90.42554473876953, -65.20939636230469, -165.39151000976562, 9.070111274719238, -3.976593017578125, -0.2562359571456909, 6.841447353363037, 7.344587802886963, 1.4387131929397583, 
113, 2237111637, -90.23512268066406, -65.19779205322266, -165.5374298095703, 9.071287155151367, -4.009226322174072, -0.2266257107257843, 6.905162811279297, 7.2671427726745605, 1.4589612483978271, 
114, 2237119970, -90.02680206298828, -65.19242095947266, -165.70347595214844, 9.091645240783691, -4.014862060546875, -0.23752938210964203, 6.934708595275879, 7.247432708740234, 1.5507755279541016, 
115, 2237128303, -89.8409652709961, -65.1806411743164, -165.84524536132812, 9.073857307434082, -4.0157880783081055, -0.24372123181819916, 6.809365749359131, 7.068812370300293, 1.43275785446167, 
116, 2237136636, -89.64173126220703, -65.17569732666016, -165.92764282226562, 9.080801010131836, -3.98408579826355, -0.24695076048374176, 6.782393932342529, 6.959593296051025, 1.45235276222229, 
117, 2237144969, -89.46014404296875, -65.16328430175781, -166.06503295898438, 9.082784652709961, -4.023280143737793, -0.23940211534500122, 6.770162105560303, 6.8663434982299805, 1.4631491899490356, 
118, 2237153302, -89.26339721679688, -65.15779113769531, -166.2135467529297, 9.068077087402344, -3.9977476596832275, -0.22918450832366943, 6.829010963439941, 6.939971923828125, 1.4866245985031128, 
119, 2237161635, -89.0845718383789, -65.14515686035156, -166.34774780273438, 9.062747955322266, -3.996150016784668, -0.2508700489997864, 6.793138027191162, 6.717883586883545, 1.4486514329910278, 
120, 2237169968, -88.89546966552734, -65.13983154296875, -166.45765686035156, 9.056013107299805, -4.009741306304932, -0.2504211664199829, 6.704476356506348, 6.713491916656494, 1.4322713613510132, 
121, 2237178301, -88.72102355957031, -65.12602233886719, -166.58811950683594, 9.05734634399414, -4.001246929168701, -0.2419305443763733, 6.671663761138916, 6.546384811401367, 1.5520946979522705, 
122, 2237186634, -88.54133605957031, -65.12063598632812, -166.72691345214844, 9.07120418548584, -4.000511646270752, -0.23758810758590698, 6.496142387390137, 6.428238868713379, 1.4152506589889526, 
123, 2237194967, -88.37435150146484, -65.10730743408203, -166.8502655029297, 9.044291496276855, -3.978813886642456, -0.20384804904460907, 6.554888725280762, 6.197543621063232, 1.4651087522506714, 
124, 2237203300, -88.2027587890625, -65.1015625, -167.0050506591797, 9.062684059143066, -4.009632587432861, -0.20581485331058502, 6.4147138595581055, 6.1477370262146, 1.4439386129379272, 
125, 2237211633, -88.04212188720703, -65.08805847167969, -167.12356567382812, 9.044644355773926, -4.00105094909668, -0.2380380928516388, 6.322630882263184, 5.965568542480469, 1.4602805376052856, 
126, 2237219966, -87.87861633300781, -65.08206939697266, -167.23208618164062, 9.041570663452148, -4.025191783905029, -0.2269843965768814, 6.3263702392578125, 5.866876602172852, 1.4549524784088135, 
127, 2237228299, -87.72351837158203, -65.06938171386719, -167.34486389160156, 9.053937911987305, -4.013334274291992, -0.22438450157642365, 6.283441066741943, 5.686860084533691, 1.3410717248916626, 
128, 2237236632, -87.57059478759766, -65.06450653076172, -167.43861389160156, 9.045750617980957, -4.017434597015381, -0.22238276898860931, 6.151001930236816, 5.484212398529053, 1.3094508647918701, 
129, 2237244965, -87.42434692382812, -65.05071258544922, -167.54437255859375, 9.012276649475098, -4.025143623352051, -0.1974991410970688, 5.98552131652832, 5.346498012542725, 1.4616378545761108, 
130, 2237253298, -87.28082275390625, -65.04576110839844, -167.6326141357422, 9.046309471130371, -4.012920379638672, -0.21104198694229126, 5.93421745300293, 5.186666011810303, 1.309694528579712, 
131, 2237261631, -87.14511108398438, -65.03201293945312, -167.72836303710938, 9.03270435333252, -4.011553764343262, -0.20974309742450714, 5.811805725097656, 4.851528167724609, 1.454389214515686, 
132, 2237269964, -87.01366424560547, -65.02709197998047, -167.80950927734375, 9.0335111618042, -4.024746417999268, -0.20330099761486053, 5.674629211425781, 4.750698566436768, 1.321336030960083, 
133, 2237278297, -86.88504028320312, -65.0136947631836, -167.89862060546875, 9.030594825744629, -4.024546146392822, -0.21768799424171448, 5.690638065338135, 4.523550987243652, 1.407194972038269, 
134, 2237286630, -86.76848602294922, -65.00836181640625, -167.95697021484375, 9.022627830505371, -4.0078043937683105, -0.23361462354660034, 5.450913906097412, 4.142410755157471, 1.3924411535263062, 
135, 2237294963, -86.6549072265625, -64.9954833984375, -168.0322265625, 9.027765274047852, -4.01224946975708, -0.20520789921283722, 5.389081001281738, 3.829200029373169, 1.37051522731781, 
136, 2237303296, -86.55181884765625, -64.9902114868164, -168.08518981933594, 9.028757095336914, -4.011420249938965, -0.20818005502223969, 5.2421064376831055, 3.609224796295166, 1.4054532051086426, 
137, 2237311629, -86.44681549072266, -64.97757720947266, -168.15341186523438, 9.046241760253906, -3.9944708347320557, -0.24096348881721497, 5.126701831817627, 3.4793221950531006, 1.3486021757125854, 
138, 2237319962, -86.35480499267578, -64.97191619873047, -168.19459533691406, 9.04928207397461, -4.006166934967041, -0.2107868790626526, 5.035605430603027, 3.2015492916107178, 1.4900827407836914, 
139, 2237328295, -86.26050567626953, -64.96031951904297, -168.2526397705078, 9.028465270996094, -3.9993293285369873, -0.21898525953292847, 4.956328392028809, 2.9629268646240234, 1.2430588006973267, 
140, 2237336628, -86.18217468261719, -64.95547485351562, -168.2814483642578, 9.049943923950195, -3.994514226913452, -0.21124586462974548, 4.831997871398926, 2.6413655281066895, 1.4291462898254395, 
141, 2237344961, -86.09896850585938, -64.94320678710938, -168.32847595214844, 9.021729469299316, -3.9861323833465576, -0.2277725636959076, 4.813542366027832, 2.4161524772644043, 1.3633049726486206, 
142, 2237353294, -86.0323486328125, -64.93943786621094, -168.3478546142578, 9.055166244506836, -4.0045623779296875, -0.232229545712471, 4.660497188568115, 2.160240411758423, 1.3473728895187378, 
143, 2237361627, -85.96134948730469, -64.9280014038086, -168.38380432128906, 9.042621612548828, -3.9778568744659424, -0.2156573086977005, 4.558897972106934, 1.8563404083251953, 1.2950557470321655, 
144, 2237369960, -85.90925598144531, -64.92449188232422, -168.39068603515625, 9.052571296691895, -3.9862253665924072, -0.22186321020126343, 4.396299362182617, 1.5742766857147217, 1.3688504695892334, 
145, 2237378293, -85.84931945800781, -64.9128646850586, -168.41639709472656, 9.042157173156738, -4.009304523468018, -0.20825603604316711, 4.345249652862549, 1.3431593179702759, 1.3546600341796875, 
146, 2237386626, -85.81070709228516, -64.91102600097656, -168.41224670410156, 9.02860164642334, -4.001220703125, -0.22289223968982697, 4.2014007568359375, 0.9994418621063232, 1.228843092918396, 
147, 2237394959, -85.76079559326172, -64.90018463134766, -168.4290313720703, 9.030399322509766, -3.9844558238983154, -0.21923765540122986, 4.108395576477051, 0.886867344379425, 1.296105980873108, 
148, 2237403292, -85.73112487792969, -64.8990478515625, -168.4167022705078, 9.037997245788574, -4.004496097564697, -0.23470500111579895, 4.001097679138184, 0.6791102290153503, 1.1815847158432007, 
149, 2237411625, -85.69596862792969, -64.88858032226562, -168.4202880859375, 9.03024959564209, -3.9968583583831787, -0.23044966161251068, 3.7817366123199463, 0.21751607954502106, 1.2973097562789917, 
150, 2237419958, -85.68482971191406, -64.88722229003906, -168.3900909423828, 9.040555953979492, -3.9985523223876953, -0.22098973393440247, 3.6195733547210693, -0.08395064622163773, 1.2869359254837036, 
151, 2237428291, -85.66043090820312, -64.8784408569336, -168.3831329345703, 9.02385139465332, -3.988100051879883, -0.2106321007013321, 3.63120174407959, -0.3274651765823364, 1.1434961557388306, 
152, 2237436624, -85.66158294677734, -64.87825775146484, -168.34042358398438, 9.02137279510498, -3.992910146713257, -0.20732465386390686, 3.4939608573913574, -0.6351433396339417, 1.1956723928451538, 
153, 2237444957, -85.64910125732422, -64.8692855834961, -168.32296752929688, 9.025814056396484, -4.002506732940674, -0.2112637609243393, 3.3429903984069824, -0.8570138216018677, 1.2102981805801392, 
154, 2237453290, -85.66423034667969, -64.86956024169922, -168.26499938964844, 9.005228996276855, -3.9944167137145996, -0.21109488606452942, 3.2909932136535645, -1.2452998161315918, 1.2043811082839966, 
155, 2237461623, -85.6652603149414, -64.86100769042969, -168.2351531982422, 9.020570755004883, -4.001590728759766, -0.22737529873847961, 3.0689697265625, -1.4894037246704102, 1.209068775177002, 
156, 2237469956, -85.69412994384766, -64.86237335205078, -168.16661071777344, 8.991022109985352, -3.990748167037964, -0.2208646833896637, 2.9700214862823486, -1.7946996688842773, 1.1250028610229492, 
157, 2237478289, -85.7087173461914, -64.85423278808594, -168.12399291992188, 8.99453067779541, -3.9913878440856934, -0.185086190700531, 2.829117774963379, -2.1401844024658203, 1.211937427520752, 
158, 2237486622, -85.75220489501953, -64.85624694824219, -168.03977966308594, 9.022568702697754, -4.000883102416992, -0.20470066368579865, 2.612741708755493, -2.3789989948272705, 1.1017322540283203, 
159, 2237494955, -85.77735137939453, -64.84883880615234, -167.98817443847656, 9.018792152404785, -3.994645357131958, -0.17612627148628235, 2.5391645431518555, -2.600433349609375, 1.157097339630127, 
160, 2237503288, -85.83507537841797, -64.85040283203125, -167.8920135498047, 9.01540470123291, -4.0060319900512695, -0.2105027735233307, 2.3838655948638916, -3.00105357170105, 1.2121937274932861, 
161, 2237511621, -85.87561798095703, -64.84312438964844, -167.82525634765625, 9.02371883392334, -4.011394023895264, -0.21115823090076447, 2.3400139808654785, -3.3734073638916016, 1.1980290412902832, 
162, 2237519954, -85.94799041748047, -64.846435546875, -167.71241760253906, 9.026772499084473, -4.0092267990112305, -0.21288111805915833, 2.1926939487457275, -3.6819441318511963, 1.0558829307556152, 
163, 2237528287, -86.00135803222656, -64.8400650024414, -167.6341552734375, 9.033632278442383, -3.9969642162323, -0.22381801903247833, 2.050931930541992, -3.9640719890594482, 1.1244393587112427, 
164, 2237536620, -86.08456420898438, -64.8433837890625, -167.51766967773438, 9.02349853515625, -4.010183811187744, -0.2175629884004593, 1.9530344009399414, -4.113300323486328, 1.0871449708938599, 
165, 2237544953, -86.14936065673828, -64.83756256103516, -167.42977905273438, 9.034167289733887, -4.003924369812012, -0.21357682347297668, 1.7291146516799927, -4.457633018493652, 1.0837126970291138, 
166, 2237553286, -86.24676513671875, -64.84141540527344, -167.3037109375, 9.012301445007324, -3.988530397415161, -0.1997307389974594, 1.60365629196167, -4.688135147094727, 1.055076003074646, 
167, 2237561619, -86.32381439208984, -64.83618927001953, -167.20315551757812, 9.034899711608887, -3.9956459999084473, -0.22138366103172302, 1.6312168836593628, -5.105698108673096, 1.0489542484283447, 
168, 2237569952, -86.4339599609375, -64.83976745605469, -167.06161499023438, 9.04468822479248, -4.006862640380859, -0.22899693250656128, 1.478069543838501, -5.287303447723389, 1.1205203533172607, 
169, 2237578285, -86.52175903320312, -64.83500671386719, -166.95228576660156, 9.050179481506348, -4.007415771484375, -0.20042186975479126, 1.2951326370239258, -5.556431770324707, 1.0073310136795044, 
170, 2237586618, -86.64107513427734, -64.83912658691406, -166.7990264892578, 9.045598030090332, -4.001062870025635, -0.22587135434150696, 1.2501283884048462, -5.64831018447876, 1.0691381692886353, 
171, 2237594951, -86.737060546875, -64.83358001708984, -166.68240356445312, 9.046895027160645, -4.003261089324951, -0.21834887564182281, 1.1114529371261597, -5.921998500823975, 1.1018987894058228, 
172, 2237603284, -86.87152862548828, -64.83755493164062, -166.53176879882812, 9.05913257598877, -3.99290132522583, -0.23271240293979645, 0.9931663870811462, -6.333081245422363, 1.113911747932434, 
173, 2237611617, -86.97975158691406, -64.83287048339844, -166.40431213378906, 9.052834510803223, -3.9924395084381104, -0.24235056340694427, 0.8155443668365479, -6.477148056030273, 1.0106736421585083, 
174, 2237619950, -87.12564849853516, -64.83750915527344, -166.21580505371094, 9.034564018249512, -3.992347478866577, -0.2186470478773117, 0.6892791390419006, -6.787568092346191, 1.0336112976074219, 
175, 2237628283, -87.24205017089844, -64.83321380615234, -166.08087158203125, 9.035775184631348, -3.99153470993042, -0.22239641845226288, 0.6477583646774292, -6.859069347381592, 0.9568197727203369, 
176, 2237636616, -87.39678192138672, -64.8375244140625, -165.91273498535156, 9.061759948730469, -3.978996515274048, -0.20896559953689575, 0.5244899392127991, -7.164045333862305, 1.0698683261871338, 
177, 2237644949, -87.52171325683594, -64.83285522460938, -165.7694549560547, 9.039958000183105, -3.995201587677002, -0.22765864431858063, 0.541023850440979, -7.284445285797119, 0.9860968589782715, 
178, 2237653282, -87.68343353271484, -64.83838653564453, -165.5812225341797, 9.04898452758789, -4.005118370056152, -0.2051812708377838, 0.4380802810192108, -7.4893341064453125, 0.9126608967781067, 
179, 2237661615, -87.81888580322266, -64.83305358886719, -165.42861938476562, 9.034263610839844, -3.985703945159912, -0.21454456448554993, 0.28493279218673706, -7.75487756729126, 1.0543333292007446, 
180, 2237669948, -87.99087524414062, -64.83829498291016, -165.23158264160156, 9.044453620910645, -3.9990782737731934, -0.21096906065940857, 0.2842155992984772, -7.962352752685547, 0.9219844341278076, 
181, 2237678281, -88.1334457397461, -64.83283996582031, -165.07225036621094, 9.047703742980957, -3.9927892684936523, -0.21692940592765808, 0.1594870239496231, -8.097760200500488, 1.0480704307556152, 
182, 2237686614, -88.31317901611328, -64.83717346191406, -164.86679077148438, 9.044076919555664, -4.000508785247803, -0.1955009549856186, 0.11447001248598099, -8.287959098815918, 0.997853696346283, 
183, 2237694947, -88.46333312988281, -64.8315658569336, -164.7005615234375, 9.039125442504883, -4.020190238952637, -0.25097158551216125, 0.005814431235194206, -8.44884204864502, 1.0313314199447632, 
184, 2237703280, -88.64948272705078, -64.83573913574219, -164.4811248779297, 9.046072959899902, -4.01851224899292, -0.20194530487060547, -0.08834350854158401, -8.533178329467773, 0.9792963266372681, 
185, 2237711613, -88.80701446533203, -64.83007049560547, -164.30845642089844, 9.050677299499512, -4.006502628326416, -0.22772125899791718, -0.17742979526519775, -8.778817176818848, 0.9963808655738831, 
186, 2237719946, -89.00131225585938, -64.8334732055664, -164.1037139892578, 9.058455467224121, -4.008831024169922, -0.20468772947788239, -0.31910213828086853, -8.866649627685547, 1.0375174283981323, 
187, 2237728279, -89.1643295288086, -64.8281021118164, -163.92617797851562, 9.060370445251465, -4.025623321533203, -0.22490383684635162, -0.30790871381759644, -9.029787063598633, 0.9129298329353333, 
188, 2237736612, -89.36540985107422, -64.83164978027344, -163.7098846435547, 9.044042587280273, -4.015864372253418, -0.22237621247768402, -0.3917185664176941, -9.19884204864502, 0.9580878019332886, 
189, 2237744945, -89.53215026855469, -64.82551574707031, -163.5290985107422, 9.049530029296875, -4.010634899139404, -0.22084000706672668, -0.40455126762390137, -9.195537567138672, 0.9566918015480042, 
190, 2237753278, -89.73777770996094, -64.82896423339844, -163.3248748779297, 9.074931144714355, -4.009938716888428, -0.22199814021587372, -0.4747983515262604, -9.408123016357422, 0.911533772945404, 
191, 2237761611, -89.91095733642578, -64.82299041748047, -163.13783264160156, 9.045584678649902, -4.003600597381592, -0.2228032946586609, -0.483814537525177, -9.519391059875488, 0.8804125785827637, 
192, 2237769944, -90.12212371826172, -64.82537078857422, -162.9484405517578, 9.050948143005371, -4.044781684875488, -0.2274133712053299, -0.648834228515625, -9.636919975280762, 0.9863145351409912, 
193, 2237778277, -90.30021667480469, -64.81890106201172, -162.75692749023438, 9.062723159790039, -4.012645721435547, -0.2327945977449417, -0.5843631625175476, -9.749547004699707, 0.876288652420044, 
194, 2237786610, -90.51481628417969, -64.82091522216797, -162.54962158203125, 9.068833351135254, -4.026723384857178, -0.24342964589595795, -0.7125880718231201, -9.803054809570312, 0.9591122269630432, 
195, 2237794943, -90.6935043334961, -64.8131103515625, -162.35726928710938, 9.064295768737793, -4.020835876464844, -0.26082322001457214, -0.5623348951339722, -9.795421600341797, 0.9746599793434143, 
196, 2237803276, -90.90937805175781, -64.81434631347656, -162.06033325195312, 9.059393882751465, -4.036991119384766, -0.23427389562129974, -0.6296619772911072, -9.917179107666016, 0.9833817481994629, 
197, 2237811609, -91.09215545654297, -64.80585479736328, -161.86471557617188, 9.068703651428223, -4.017946243286133, -0.24261195957660675, -0.7088356018066406, -9.961671829223633, 0.9891706109046936, 
198, 2237819942, -91.31089782714844, -64.80682373046875, -161.62924194335938, 9.066572189331055, -4.004366874694824, -0.25540074706077576, -0.6757675409317017, -10.064820289611816, 0.9368407130241394, 
199, 2237828275, -91.4935531616211, -64.79802703857422, -161.4334716796875, 9.082268714904785, -4.012935638427734, -0.2621762156486511, -0.6714900135993958, -9.978652954101562, 0.9628134369850159, 
200, 2237836608, -91.71257781982422, -64.79914855957031, -161.1806182861328, 9.078113555908203, -4.002216339111328, -0.245161235332489, -0.6943763494491577, -10.081533432006836, 0.852992594242096, 
201, 2237844941, -91.8955078125, -64.78948974609375, -160.98472595214844, 9.065632820129395, -4.017736911773682, -0.258850634098053, -0.686487078666687, -9.990755081176758, 0.9919496774673462, 
202, 2237853274, -92.11380004882812, -64.78971099853516, -160.8208770751953, 9.071866035461426, -4.0065693855285645, -0.2536028325557709, -0.672783613204956, -10.070930480957031, 0.8915548324584961, 
203, 2237861607, -92.296142578125, -64.78001403808594, -160.6258087158203, 9.077022552490234, -4.0177130699157715, -0.2522246539592743, -0.6968352794647217, -9.957174301147461, 0.9369558691978455, 
204, 2237869940, -92.51010131835938, -64.7795639038086, -160.4512481689453, 9.071040153503418, -4.019443511962891, -0.23040305078029633, -0.5406013131141663, -9.915360450744629, 0.912199854850769, 
205, 2237878273, -92.6913833618164, -64.76936340332031, -160.25735473632812, 9.067634582519531, -4.019648551940918, -0.25478410720825195, -0.6920838952064514, -9.906933784484863, 0.935150146484375, 
206, 2237886606, -92.90361022949219, -64.76822662353516, -160.06936645507812, 9.076298713684082, -4.0167646408081055, -0.2376108169555664, -0.5983356833457947, -9.818768501281738, 0.9316664934158325, 
207, 2237894939, -93.08209228515625, -64.75761413574219, -159.87705993652344, 9.081718444824219, -4.004978656768799, -0.24689584970474243, -0.5263853073120117, -9.833830833435059, 0.9233162999153137, 
208, 2237903272, -93.28929901123047, -64.75646209716797, -159.6904296875, 9.079649925231934, -4.021173477172852, -0.24242018163204193, -0.4613892138004303, -9.634870529174805, 0.8849717974662781, 
209, 2237911605, -93.46524047851562, -64.7455062866211, -159.50064086914062, 9.066344261169434, -4.019699573516846, -0.25096046924591064, -0.4976205825805664, -9.712162971496582, 0.9125840663909912, 
210, 2237919938, -93.67340850830078, -64.74368286132812, -159.28048706054688, 9.086763381958008, -4.0010223388671875, -0.2599649131298065, -0.5288058519363403, -9.694397926330566, 0.8967159390449524, 
211, 2237928271, -93.84310150146484, -64.73198699951172, -159.096923828125, 9.057027816772461, -4.021580219268799, -0.23031021654605865, -0.42378759384155273, -9.4049072265625, 0.9613792300224304, 
212, 2237936604, -94.04581451416016, -64.72875213623047, -158.8802032470703, 9.079029083251953, -4.022890090942383, -0.25579261779785156, -0.4650649130344391, -9.465985298156738, 1.021470308303833, 
213, 2237944937, -94.21226501464844, -64.7162857055664, -158.70004272460938, 9.078139305114746, -4.0028862953186035, -0.25529006123542786, -0.4037444293498993, -9.242987632751465, 1.0066908597946167, 
214, 2237953270, -94.40972900390625, -64.71391296386719, -158.5098419189453, 9.063909530639648, -4.030694484710693, -0.28293848037719727, -0.42096999287605286, -9.223149299621582, 0.8884426355361938, 
215, 2237961603, -94.57333374023438, -64.70191192626953, -158.33181762695312, 9.048666954040527, -4.0202836990356445, -0.2508736848831177, -0.300032377243042, -9.136226654052734, 0.9079734683036804, 
216, 2237969936, -94.76458740234375, -64.69879913330078, -158.1273193359375, 9.058018684387207, -4.006697177886963, -0.25777724385261536, -0.16551922261714935, -9.042619705200195, 0.9347532391548157, 
217, 2237978269, -94.92034912109375, -64.68624114990234, -157.95729064941406, 9.056909561157227, -4.009891033172607, -0.24913552403450012, -0.2212301641702652, -8.738860130310059, 0.9526062607765198, 
218, 2237986602, -95.10226440429688, -64.68252563476562, -157.76841735839844, 9.061103820800781, -4.031133651733398, -0.2776620090007782, -0.11441878229379654, -8.592986106872559, 0.9996083378791809, 
219, 2237994935, -95.25328063964844, -64.66970825195312, -157.60206604003906, 9.05650806427002, -4.037606239318848, -0.2864745259284973, -0.05145900323987007, -8.560124397277832, 0.9545785784721375, 
220, 2238003268, -95.42887878417969, -64.66606140136719, -157.4193115234375, 9.085908889770508, -4.009057998657227, -0.2805076241493225, -0.024615280330181122, -8.325190544128418, 0.9733793139457703, 
221, 2238011601, -95.57025146484375, -64.65239715576172, -157.2622833251953, 9.07803726196289, -4.027472496032715, -0.27852970361709595, 0.09855075925588608, -8.097683906555176, 1.0554986000061035, 
222, 2238019934, -95.73619842529297, -64.64884948730469, -157.08682250976562, 9.074935913085938, -4.029143333435059, -0.27198147773742676, 0.163995161652565, -7.913852691650391, 0.9678725004196167, 
223, 2238028267, -95.87212371826172, -64.63459777832031, -156.93484497070312, 9.081856727600098, -4.019619464874268, -0.30241575837135315, 0.19506524503231049, -7.854376316070557, 1.1152055263519287, 
224, 2238036600, -96.02978515625, -64.63021850585938, -156.7742156982422, 9.06812572479248, -4.02051305770874, -0.31118619441986084, 0.28573963046073914, -7.56416654586792, 1.0695353746414185, 
225, 2238044933, -96.15508270263672, -64.61759948730469, -156.6317901611328, 9.077963829040527, -4.005237579345703, -0.27179834246635437, 0.44137170910835266, -7.349518299102783, 0.9335237145423889, 
226, 2238053266, -96.30111694335938, -64.6136474609375, -156.48037719726562, 9.077201843261719, -3.9921114444732666, -0.30600452423095703, 0.5946985483169556, -7.104748725891113, 1.0492744445800781, 
227, 2238061599, -96.41619110107422, -64.60003662109375, -156.3469696044922, 9.077712059020996, -4.0065484046936035, -0.29389217495918274, 0.6916995644569397, -6.907134532928467, 1.0710207223892212, 
228, 2238069932, -96.55351257324219, -64.5965576171875, -156.1984405517578, 9.05591869354248, -4.0012898445129395, -0.25448501110076904, 0.7565292716026306, -6.730217456817627, 1.0129790306091309, 
229, 2238078265, -96.66035461425781, -64.5835189819336, -156.0728302001953, 9.075505256652832, -4.001450538635254, -0.2614614963531494, 0.833909809589386, -6.504658222198486, 1.0245310068130493, 
230, 2238086598, -96.78636932373047, -64.58036041259766, -155.9369354248047, 9.074922561645508, -4.0076904296875, -0.283479243516922, 1.0092136859893799, -6.266983985900879, 1.01753830909729, 
231, 2238094931, -96.88160705566406, -64.56689453125, -155.82130432128906, 9.064936637878418, -4.013858318328857, -0.3065101206302643, 1.1442265510559082, -6.007691860198975, 1.1167166233062744, 
232, 2238103264, -96.99687957763672, -64.56285858154297, -155.69190979003906, 9.053351402282715, -3.9923839569091797, -0.26420700550079346, 1.1886157989501953, -5.809360027313232, 1.1686879396438599, 
233, 2238111597, -97.0844497680664, -64.54988098144531, -155.58395385742188, 9.077727317810059, -3.9947283267974854, -0.31259259581565857, 1.231289267539978, -5.609979152679443, 1.0875931978225708, 
234, 2238119930, -97.1886215209961, -64.5470962524414, -155.466796875, 9.075453758239746, -4.0262298583984375, -0.28338345885276794, 1.4932587146759033, -5.364645481109619, 1.0688819885253906, 
235, 2238128263, -97.26380157470703, -64.53559875488281, -155.37025451660156, 9.07364559173584, -4.021841049194336, -0.26554691791534424, 1.482398271560669, -5.008671283721924, 0.9739813804626465, 
236, 2238136596, -97.3533935546875, -64.5335464477539, -155.2697296142578, 9.077298164367676, -3.9997808933258057, -0.2736694812774658, 1.6812286376953125, -4.675212383270264, 1.0662821531295776, 
237, 2238144929, -97.4161148071289, -64.5216293334961, -155.184326171875, 9.073636054992676, -4.010788440704346, -0.2845768630504608, 1.7739779949188232, -4.4446845054626465, 1.0845963954925537, 
238, 2238153262, -97.4929428100586, -64.5198974609375, -155.0935516357422, 9.082377433776855, -4.010929584503174, -0.2684263288974762, 1.8159980773925781, -4.072906970977783, 1.1159610748291016, 
239, 2238161595, -97.54356384277344, -64.50852966308594, -155.01893615722656, 9.068770408630371, -4.019052982330322, -0.26882609724998474, 2.048652410507202, -3.8863840103149414, 1.092472791671753, 
240, 2238169928, -97.60672760009766, -64.50718688964844, -154.9404754638672, 9.072396278381348, -4.011229515075684, -0.269709974527359, 2.13680362701416, -3.50600004196167, 1.1520899534225464, 
241, 2238178261, -97.64688873291016, -64.4962387084961, -154.87539672851562, 9.079266548156738, -4.0022125244140625, -0.2747465968132019, 2.2824718952178955, -3.3914785385131836, 1.0967119932174683, 
242, 2238186594, -97.70061492919922, -64.49531555175781, -154.80523681640625, 9.061121940612793, -4.000575542449951, -0.2687552273273468, 2.3866446018218994, -3.142482280731201, 1.1658703088760376, 
243, 2238194927, -97.72647857666016, -64.48546600341797, -154.75387573242188, 9.059151649475098, -4.005213260650635, -0.2635599672794342, 2.5122952461242676, -2.6746127605438232, 1.0616843700408936, 
244, 2238203260, -97.76637268066406, -64.48514556884766, -154.6973114013672, 9.059412956237793, -4.012812614440918, -0.27059704065322876, 2.6326310634613037, -2.5251920223236084, 1.19329035282135, 
245, 2238211593, -97.78089141845703, -64.47531127929688, -154.65695190429688, 9.057669639587402, -4.015340328216553, -0.2642768323421478, 2.6794798374176025, -2.110971689224243, 1.1414984464645386, 
246, 2238219926, -97.8073501586914, -64.47589111328125, -154.61087036132812, 9.05530834197998, -4.011406421661377, -0.2656293511390686, 2.852081060409546, -1.9153045415878296, 1.1876682043075562, 
247, 2238228259, -97.80931091308594, -64.4661865234375, -154.58209228515625, 9.07539176940918, -4.002506256103516, -0.2824341952800751, 2.9323818683624268, -1.5133916139602661, 1.2100037336349487, 
248, 2238236592, -97.82495880126953, -64.46766662597656, -154.5516815185547, 9.08407211303711, -4.006120204925537, -0.27984562516212463, 3.0122087001800537, -1.4202837944030762, 1.1604785919189453, 
249, 2238244925, -97.81851959228516, -64.45794677734375, -154.52999877929688, 9.06081485748291, -4.028026103973389, -0.3087747395038605, 3.1798150539398193, -1.151282787322998, 1.2659194469451904, 
250, 2238253258, -97.81956481933594, -64.45948028564453, -154.51190185546875, 9.046036720275879, -4.018346786499023, -0.2891285717487335, 3.322179079055786, -0.7910956144332886, 1.2650229930877686, 
251, 2238261591, -97.80083465576172, -64.45085906982422, -154.50149536132812, 9.066869735717773, -3.9935479164123535, -0.27064836025238037, 3.433152675628662, -0.5555599331855774, 1.218827724456787, 
252, 2238269924, -97.78947448730469, -64.4533920288086, -154.49668884277344, 9.06354808807373, -4.009690284729004, -0.30249902606010437, 3.5592644214630127, -0.2370084971189499, 1.2353105545043945, 
253, 2238278257, -97.75804138183594, -64.44511413574219, -154.4980010986328, 9.06094741821289, -4.013169765472412, -0.3001706600189209, 3.687283754348755, 0.05426374822854996, 1.2676867246627808, 
254, 2238286590, -97.73269653320312, -64.44827270507812, -154.50454711914062, 9.075688362121582, -3.9972569942474365, -0.29924023151397705, 3.808209180831909, 0.3968541622161865, 1.2684296369552612, 
255, 2238294923, -97.68946838378906, -64.44087219238281, -154.51673889160156, 9.090808868408203, -4.030290126800537, -0.2897968888282776, 3.930081605911255, 0.6279714107513428, 1.2413041591644287, 
256, 2238303256, -97.65190887451172, -64.44503784179688, -154.53164672851562, 9.065757751464844, -4.019113540649414, -0.2961086332798004, 4.06027889251709, 0.9391332268714905, 1.242815613746643, 
257, 2238311589, -97.59651184082031, -64.43734741210938, -154.5545654296875, 9.047341346740723, -4.016304969787598, -0.28672751784324646, 4.224492073059082, 1.174118161201477, 1.3544167280197144, 
258, 2238319922, -97.54737091064453, -64.44159698486328, -154.58253479003906, 9.066717147827148, -4.017334938049316, -0.28496500849723816, 4.3035502433776855, 1.4381625652313232, 1.3098353147506714, 
259, 2238328255, -97.4787826538086, -64.43539428710938, -154.61810302734375, 9.059364318847656, -4.034155368804932, -0.2672456204891205, 4.44346809387207, 1.8488739728927612, 1.2664318084716797, 
260, 2238336588, -97.4161605834961, -64.44076538085938, -154.65647888183594, 9.057765007019043, -4.01234245300293, -0.26380908489227295, 4.620052337646484, 2.0191829204559326, 1.2685065269470215, 
261, 2238344921, -97.3365478515625, -64.4346923828125, -154.70289611816406, 9.055501937866211, -4.0155463218688965, -0.2728620171546936, 4.590980052947998, 2.412182092666626, 1.3269838094711304, 
262, 2238353254, -97.26229095458984, -64.44066619873047, -154.75030517578125, 9.079092979431152, -4.012564659118652, -0.30165570974349976, 4.740490913391113, 2.5841050148010254, 1.2827227115631104, 
263, 2238361587, -97.17156219482422, -64.43458557128906, -154.8057403564453, 9.075626373291016, -4.010233402252197, -0.2711029350757599, 4.948413848876953, 2.880141496658325, 1.3838090896606445, 
264, 2238369920, -97.08540344238281, -64.44050598144531, -154.86624145507812, 9.07261848449707, -4.010807037353516, -0.2698648273944855, 5.026051044464111, 3.081162214279175, 1.3649569749832153, 
265, 2238378253, -96.98397827148438, -64.43467712402344, -154.93231201171875, 9.074006080627441, -4.025049209594727, -0.25403183698654175, 5.0846052169799805, 3.432358503341675, 1.4153401851654053, 
266, 2238386586, -96.88609313964844, -64.44178009033203, -155.00491333007812, 9.073927879333496, -4.024672031402588, -0.29451504349708557, 5.287622928619385, 3.595931053161621, 1.2962085008621216, 
267, 2238394919, -96.77522277832031, -64.43659210205078, -155.07772827148438, 9.069195747375488, -4.0215744972229, -0.2757720947265625, 5.4887590408325195, 3.790663242340088, 1.374575138092041, 
268, 2238403252, -96.66590118408203, -64.44367980957031, -155.15951538085938, 9.074644088745117, -4.0251264572143555, -0.27867892384529114, 5.468139171600342, 4.127362251281738, 1.3621007204055786, 
269, 2238411585, -96.54327392578125, -64.43870544433594, -155.24400329589844, 9.079390525817871, -4.011725902557373, -0.27968651056289673, 5.634902000427246, 4.400141716003418, 1.4070924520492554, 
270, 2238419918, -96.4256362915039, -64.4460678100586, -155.33224487304688, 9.056516647338867, -4.034116744995117, -0.27864348888397217, 5.610977649688721, 4.49744987487793, 1.3738452196121216, 
271, 2238428251, -96.29632568359375, -64.44110870361328, -155.4225616455078, 9.084324836730957, -4.019097805023193, -0.2891468405723572, 5.806363582611084, 4.704259872436523, 1.4287877082824707, 
272, 2238436584, -96.16866302490234, -64.44767761230469, -155.5219268798828, 9.074811935424805, -4.010129928588867, -0.28116375207901, 5.778943061828613, 4.944328784942627, 1.5165035724639893, 
273, 2238444917, -96.03101348876953, -64.44281768798828, -155.62098693847656, 9.064032554626465, -4.023398399353027, -0.2931951582431793, 5.861332416534424, 5.158810138702393, 1.4469740390777588, 
274, 2238453250, -95.89397430419922, -64.4502944946289, -155.73135375976562, 9.071269989013672, -3.999093532562256, -0.2732605040073395, 6.017218589782715, 5.350249290466309, 1.442234992980957, 
275, 2238461583, -95.74898529052734, -64.44556427001953, -155.83782958984375, 9.077312469482422, -4.025053977966309, -0.2756902575492859, 5.937328338623047, 5.546557426452637, 1.4540432691574097, 
276, 2238469916, -95.60619354248047, -64.45361328125, -155.9474639892578, 9.06808090209961, -4.003582000732422, -0.27211689949035645, 6.043909072875977, 5.645735740661621, 1.3942339420318604, 
277, 2238478249, -95.45491790771484, -64.44884490966797, -156.05828857421875, 9.05025863647461, -4.001944065093994, -0.25028228759765625, 6.22625732421875, 5.775779724121094, 1.4539666175842285, 
278, 2238486582, -95.30538177490234, -64.4562759399414, -156.17669677734375, 9.0360746383667, -4.017021179199219, -0.27666446566581726, 6.2750654220581055, 5.881246089935303, 1.485433578491211, 
279, 2238494915, -95.14910125732422, -64.45113372802734, -156.29185485839844, 9.07407283782959, -4.012217998504639, -0.26997479796409607, 6.357773780822754, 5.999558925628662, 1.4964220523834229, 
280, 2238503248, -94.99150848388672, -64.45854187011719, -156.42495727539062, 9.075261116027832, -4.0131964683532715, -0.2787194848060608, 6.435014247894287, 6.247313022613525, 1.497280240058899, 
281, 2238511581, -94.82861328125, -64.45294189453125, -156.54689025878906, 9.050043106079102, -4.030683517456055, -0.26451376080513, 6.414317607879639, 6.346132278442383, 1.5554245710372925, 
282, 2238519914, -94.6668701171875, -64.46099090576172, -156.67486572265625, 9.068575859069824, -4.001767635345459, -0.263310045003891, 6.512548446655273, 6.437754154205322, 1.4207961559295654, 
283, 2238528247, -94.4981460571289, -64.45531463623047, -156.80126953125, 9.080561637878418, -4.0220770835876465, -0.24256561696529388, 6.631295680999756, 6.584934234619141, 1.5517873764038086, 
284, 2238536580, -94.33079528808594, -64.46310424804688, -156.9260711669922, 9.088481903076172, -4.011688709259033, -0.2451743483543396, 6.629541873931885, 6.680923938751221, 1.4528268575668335, 
285, 2238544913, -94.15750122070312, -64.45769500732422, -157.05699157714844, 9.09815788269043, -3.9963884353637695, -0.2518104612827301, 6.6853156089782715, 6.826757431030273, 1.502889633178711, 
286, 2238553246, -93.98615264892578, -64.46544647216797, -157.18788146972656, 9.092839241027832, -4.01913595199585, -0.2583034336566925, 6.682727813720703, 6.871018409729004, 1.448023796081543, 
287, 2238561579, -93.80967712402344, -64.45964050292969, -157.32261657714844, 9.081783294677734, -4.022481918334961, -0.25906407833099365, 6.661019802093506, 7.025433540344238, 1.5255966186523438, 
288, 2238569912, -93.63345336914062, -64.46727752685547, -157.46873474121094, 9.061240196228027, -4.017277240753174, -0.26906150579452515, 6.779909133911133, 7.091634273529053, 1.4508671760559082, 
289, 2238578245, -93.45465850830078, -64.4615478515625, -157.60533142089844, 9.090325355529785, -4.006848335266113, -0.2617696225643158, 6.736902713775635, 7.129209995269775, 1.4885201454162598, 
290, 2238586578, -93.2760238647461, -64.46858215332031, -157.72476196289062, 9.070152282714844, -4.023419380187988, -0.2521350383758545, 6.958234786987305, 7.1335129737854, 1.498663306236267, 
291, 2238594911, -93.094970703125, -64.46269989013672, -157.86277770996094, 9.07750415802002, -4.015836238861084, -0.26084572076797485, 6.847889423370361, 7.210305690765381, 1.4742530584335327, 
292, 2238603244, -92.91661834716797, -64.46991729736328, -158.01019287109375, 9.074105262756348, -4.010798454284668, -0.26462340354919434, 6.920762062072754, 7.137150764465332, 1.4445916414260864, 
293, 2238611577, -92.73136901855469, -64.46395111083984, -158.15155029296875, 9.083650588989258, -3.9945075511932373, -0.2762570083141327, 6.99232816696167, 7.3852763175964355, 1.45125150680542, 
294, 2238619910, -92.55118560791016, -64.47108459472656, -158.26194763183594, 9.062790870666504, -4.00091028213501, -0.26041579246520996, 6.828499794006348, 7.2899394035339355, 1.437778353691101, 
295, 2238628243, -92.36624908447266, -64.464599609375, -158.40333557128906, 9.057796478271484, -4.015194892883301, -0.27062731981277466, 6.954675674438477, 7.393267631530762, 1.467516541481018, 
296, 2238636576, -92.18496704101562, -64.47114562988281, -158.54541015625, 9.076510429382324, -4.019699573516846, -0.26769986748695374, 6.823120594024658, 7.357920169830322, 1.4801442623138428, 
297, 2238644909, -92.0022201538086, -64.46443939208984, -158.68528747558594, 9.075600624084473, -4.012381076812744, -0.2662699222564697, 6.857636451721191, 7.318769931793213, 1.4535183906555176, 
298, 2238653242, -91.82335662841797, -64.4708023071289, -158.81985473632812, 9.065887451171875, -4.0090460777282715, -0.25622668862342834, 6.84589147567749, 7.217630863189697, 1.4655697345733643, 
299, 2238661575, -91.64176177978516, -64.46358489990234, -158.95828247070312, 9.061121940612793, -4.036808967590332, -0.22803321480751038, 6.873849391937256, 7.249892234802246, 1.472472906112671, 
300, 2238669908, -91.46424102783203, -64.46968841552734, -159.08999633789062, 9.064241409301758, -4.013846397399902, -0.26053741574287415, 6.88550329208374, 7.133551120758057, 1.4633283615112305, 
301, 2238678241, -91.28515625, -64.46198272705078, -159.22621154785156, 9.062054634094238, -4.003962516784668, -0.2540706694126129, 6.806650161743164, 7.140608787536621, 1.4906716346740723, 
302, 2238686574, -91.11006927490234, -64.4672622680664, -159.39425659179688, 9.071475982666016, -4.023329734802246, -0.21365749835968018, 6.787952423095703, 7.059232234954834, 1.5248923301696777, 
303, 2238694907, -90.93589782714844, -64.45916748046875, -159.525634765625, 9.066020011901855, -4.012411594390869, -0.2553699016571045, 6.752987861633301, 6.89199686050415, 1.4962811470031738, 
304, 2238703240, -90.76541137695312, -64.46508026123047, -159.65463256835938, 9.065686225891113, -4.014111042022705, -0.23868732154369354, 6.758776664733887, 6.8257575035095215, 1.4217948913574219, 
305, 2238711573, -90.5931167602539, -64.45671081542969, -159.78514099121094, 9.060222625732422, -4.024845600128174, -0.26307183504104614, 6.617718696594238, 6.855495929718018, 1.4891091585159302, 
306, 2238719906, -90.4278335571289, -64.46247863769531, -159.88693237304688, 9.031673431396484, -4.023099422454834, -0.2600480914115906, 6.631423473358154, 6.609625816345215, 1.4133167266845703, 
307, 2238728239, -90.26207733154297, -64.4532241821289, -160.01034545898438, 9.040717124938965, -4.013463973999023, -0.25163617730140686, 6.594232082366943, 6.498921871185303, 1.5621355772018433, 
308, 2238736572, -90.10308074951172, -64.45794677734375, -160.1300811767578, 9.05492877960205, -4.001103401184082, -0.22219982743263245, 6.520668029785156, 6.332941055297852, 1.5120339393615723, 
309, 2238744905, -89.94207763671875, -64.44889831542969, -160.2496337890625, 9.063361167907715, -3.9978625774383545, -0.24660903215408325, 6.441237926483154, 6.305354595184326, 1.5101643800735474, 
310, 2238753238, -89.78561401367188, -64.4543685913086, -160.36753845214844, 9.058566093444824, -4.0233869552612305, -0.2180292010307312, 6.454403877258301, 6.246185302734375, 1.4005097150802612, 
311, 2238761571, -89.62947082519531, -64.44564819335938, -160.48318481445312, 9.035026550292969, -4.016434669494629, -0.23005951941013336, 6.2874369621276855, 6.110391139984131, 1.4369456768035889, 
312, 2238769904, -89.48169708251953, -64.45056915283203, -160.60096740722656, 9.065389633178711, -4.025966167449951, -0.24571582674980164, 6.249912261962891, 5.869207859039307, 1.455285668373108, 
313, 2238778237, -89.33379364013672, -64.44120025634766, -160.70838928222656, 9.06625747680664, -3.9875144958496094, -0.2215549796819687, 6.193547248840332, 5.689407825469971, 1.4962810277938843, 
314, 2238786570, -89.19325256347656, -64.44664001464844, -160.8037567138672, 9.043350219726562, -3.977778673171997, -0.22763638198375702, 6.0927300453186035, 5.562386989593506, 1.3819648027420044, 
315, 2238794903, -89.05223846435547, -64.4374771118164, -160.90452575683594, 9.031139373779297, -4.003559589385986, -0.23116782307624817, 6.080717086791992, 5.3523759841918945, 1.4550933837890625, 
316, 2238803236, -88.92090606689453, -64.442626953125, -161.00819396972656, 9.04638957977295, -3.9910686016082764, -0.21658402681350708, 5.9027252197265625, 5.160322189331055, 1.4102944135665894, 
317, 2238811569, -88.7896499633789, -64.4338607788086, -161.10089111328125, 9.040934562683105, -3.9770376682281494, -0.21198326349258423, 5.787203788757324, 4.938937187194824, 1.395386815071106, 
318, 2238819902, -88.66533660888672, -64.43840026855469, -161.18630981445312, 9.047390937805176, -3.9983537197113037, -0.2165180742740631, 5.837690353393555, 4.822265148162842, 1.4880847930908203, 
319, 2238828235, -88.5416488647461, -64.42900085449219, -161.2714385986328, 9.0502347946167, -4.0040435791015625, -0.2049630731344223, 5.702420711517334, 4.55500602722168, 1.4673116207122803, 
320, 2238836568, -88.42990112304688, -64.4343032836914, -161.34829711914062, 9.02318000793457, -4.001602649688721, -0.21354275941848755, 5.5521931648254395, 4.270354747772217, 1.4055557250976562, 
321, 2238844901, -88.31449890136719, -64.42575073242188, -161.42547607421875, 9.05184268951416, -4.009681224822998, -0.2334287017583847, 5.568714141845703, 4.146431922912598, 1.3617295026779175, 
322, 2238853234, -88.21126556396484, -64.4314193725586, -161.49700927734375, 9.045109748840332, -4.006648540496826, -0.20692482590675354, 5.4129791259765625, 3.8884963989257812, 1.3690040111541748, 
323, 2238861567, -88.10590362548828, -64.42322540283203, -161.56564331054688, 9.019722938537598, -3.9924535751342773, -0.19946663081645966, 5.294308185577393, 3.7046122550964355, 1.3252547979354858, 
324, 2238869900, -88.01102447509766, -64.4288101196289, -161.62847900390625, 9.050161361694336, -3.99626088142395, -0.22879789769649506, 5.157092571258545, 3.564451217651367, 1.3956682682037354, 
325, 2238878233, -87.91572570800781, -64.41996765136719, -161.68731689453125, 9.023438453674316, -4.005512237548828, -0.25372669100761414, 5.1432108879089355, 3.207543134689331, 1.4148792028427124, 
326, 2238886566, -87.83162689208984, -64.42597961425781, -161.74351501464844, 9.042332649230957, -3.9946799278259277, -0.24075554311275482, 4.9751296043396, 3.0777039527893066, 1.368517279624939, 
327, 2238894899, -87.74732208251953, -64.41880798339844, -161.79237365722656, 9.035599708557129, -4.003572463989258, -0.1971222311258316, 4.904664993286133, 2.6858572959899902, 1.2292526960372925, 
328, 2238903232, -87.67611694335938, -64.42569732666016, -161.83322143554688, 9.027250289916992, -4.019863605499268, -0.2163955420255661, 4.777746200561523, 2.475308656692505, 1.285091757774353, 
329, 2238911565, -87.60242462158203, -64.41799926757812, -161.87265014648438, 9.02322769165039, -3.9975271224975586, -0.19902625679969788, 4.65633487701416, 2.2032086849212646, 1.3126273155212402, 
330, 2238919898, -87.54141998291016, -64.42528533935547, -161.9063262939453, 9.027070999145508, -3.9976859092712402, -0.2162325233221054, 4.62237024307251, 1.9970393180847168, 1.2719260454177856, 
331, 2238928231, -87.4783935546875, -64.41799926757812, -161.93699645996094, 9.021400451660156, -4.004332542419434, -0.23260432481765747, 4.328344821929932, 1.750553846359253, 1.2807374000549316, 
332, 2238936564, -87.43265533447266, -64.42566680908203, -161.956298828125, 9.023039817810059, -4.0034403800964355, -0.22102655470371246, 4.245713710784912, 1.3454902172088623, 1.265189528465271, 
333, 2238944897, -87.38080596923828, -64.41857147216797, -161.97540283203125, 9.02582836151123, -4.013420581817627, -0.20836851000785828, 4.233675003051758, 1.1537675857543945, 1.2920589447021484, 
334, 2238953230, -87.34622955322266, -64.42601776123047, -161.98458862304688, 9.038582801818848, -4.025298118591309, -0.2171766757965088, 4.10027551651001, 0.8216791152954102, 1.324973225593567, 
335, 2238961563, -87.30657196044922, -64.41998291015625, -161.9930877685547, 9.028413772583008, -4.00874662399292, -0.20678316056728363, 3.921794891357422, 0.6014478206634521, 1.192291259765625, 
336, 2238969896, -87.28422546386719, -64.4284896850586, -161.99069213867188, 9.029237747192383, -4.006924629211426, -0.21565061807632446, 3.833503007888794, 0.28508642315864563, 1.2344779968261719, 
337, 2238978229, -87.25789642333984, -64.42265319824219, -161.98635864257812, 9.031054496765137, -4.007556915283203, -0.23956932127475739, 3.7159080505371094, -0.06389470398426056, 1.205994963645935, 
338, 2238986562, -87.24800872802734, -64.43157958984375, -161.97398376464844, 9.019415855407715, -4.007013320922852, -0.24132320284843445, 3.5131967067718506, -0.23233388364315033, 1.218135952949524, 
339, 2238994895, -87.23294067382812, -64.42613220214844, -161.9595947265625, 9.02125358581543, -3.9896979331970215, -0.21323803067207336, 3.4546940326690674, -0.5833513140678406, 1.1885004043579102, 
340, 2239003228, -87.23637390136719, -64.43501281738281, -161.93263244628906, 9.031183242797852, -4.004889011383057, -0.19949360191822052, 3.341965436935425, -0.8693342208862305, 1.270337700843811, 
341, 2239011561, -87.23332977294922, -64.42945861816406, -161.90699768066406, 9.037354469299316, -4.01409387588501, -0.19622907042503357, 3.230902671813965, -1.1614134311676025, 1.23586106300354, 
342, 2239019894, -87.24891662597656, -64.4394760131836, -161.8713836669922, 9.017077445983887, -3.995051860809326, -0.2130993753671646, 3.073016881942749, -1.4018287658691406, 1.1688544750213623, 
343, 2239028227, -87.25675964355469, -64.4339370727539, -161.83567810058594, 9.01535415649414, -4.016476631164551, -0.243523970246315, 3.0167417526245117, -1.6820224523544312, 1.2638318538665771, 
344, 2239036560, -87.288330078125, -64.44383239746094, -161.78207397460938, 9.02685832977295, -3.9937832355499268, -0.21548745036125183, 2.7622900009155273, -2.1193854808807373, 1.2253848314285278, 
345, 2239044893, -87.31088256835938, -64.43879699707031, -161.7332305908203, 9.031542778015137, -4.007681846618652, -0.19691102206707, 2.673792600631714, -2.3638222217559814, 1.239344596862793, 
346, 2239053226, -87.3544921875, -64.44895935058594, -161.6751251220703, 9.029509544372559, -3.980250358581543, -0.19215349853038788, 2.5706441402435303, -2.6775195598602295, 1.2265887260437012, 
347, 2239061559, -87.38737487792969, -64.44468688964844, -161.61648559570312, 9.043892860412598, -3.985065460205078, -0.2188391536474228, 2.4953644275665283, -2.87162446975708, 1.1769740581512451, 
348, 2239069892, -87.44428253173828, -64.45539093017578, -161.54481506347656, 9.025873184204102, -4.002579689025879, -0.21218016743659973, 2.2638370990753174, -3.2542247772216797, 1.1932648420333862, 
349, 2239078225, -87.4903335571289, -64.45185852050781, -161.47476196289062, 9.032675743103027, -3.996535539627075, -0.22250019013881683, 2.1605865955352783, -3.466566801071167, 1.1114530563354492, 
350, 2239086558, -87.55577087402344, -64.46414947509766, -161.3972625732422, 9.02083969116211, -4.00954532623291, -0.21029968559741974, 2.061100482940674, -3.61346435546875, 1.0259013175964355, 
351, 2239094891, -87.613037109375, -64.46055603027344, -161.31683349609375, 9.035346031188965, -3.99536395072937, -0.22538234293460846, 1.9342718124389648, -3.9996631145477295, 1.141972303390503, 
352, 2239103224, -87.69342803955078, -64.47262573242188, -161.2236785888672, 9.024181365966797, -3.9941797256469727, -0.18470953404903412, 1.8246302604675293, -4.309608459472656, 1.0719046592712402, 
353, 2239111557, -87.76400756835938, -64.46975708007812, -161.1306610107422, 9.040173530578613, -3.9903836250305176, -0.2290004938840866, 1.701169490814209, -4.650866508483887, 1.075721025466919, 
354, 2239119890, -87.85538482666016, -64.48222351074219, -161.03445434570312, 9.01504898071289, -3.986924648284912, -0.21472449600696564, 1.7052676677703857, -4.8460469245910645, 1.0473661422729492, 
355, 2239128223, -87.93245697021484, -64.480224609375, -160.9351806640625, 9.03502082824707, -4.015445709228516, -0.20767252147197723, 1.6098804473876953, -4.977217197418213, 0.975492537021637, 
356, 2239136556, -88.03349304199219, -64.49224853515625, -160.82337951660156, 9.021886825561523, -4.010433673858643, -0.2134712040424347, 1.4710510969161987, -5.245423793792725, 1.09908127784729, 
357, 2239144889, -88.12405395507812, -64.48948669433594, -160.71170043945312, 9.024048805236816, -4.000089645385742, -0.21470056474208832, 1.337626576423645, -5.611630439758301, 1.0759772062301636, 
358, 2239153222, -88.23706817626953, -64.5023193359375, -160.58926391601562, 9.02961540222168, -4.005806922912598, -0.20053403079509735, 1.235886812210083, -5.783629894256592, 1.0062295198440552, 
359, 2239161555, -88.3386001586914, -64.49966430664062, -160.46884155273438, 9.043877601623535, -4.005622863769531, -0.2036539912223816, 0.9647345542907715, -6.061032772064209, 1.0624785423278809, 
360, 2239169888, -88.46438598632812, -64.511962890625, -160.34326171875, 9.03962230682373, -3.989612340927124, -0.23037683963775635, 0.8678103089332581, -6.302702903747559, 1.0676782131195068, 
361, 2239178221, -88.5760498046875, -64.5097885131836, -160.21282958984375, 9.011458396911621, -4.014829158782959, -0.20292770862579346, 0.8479337096214294, -6.579695701599121, 0.9977001547813416, 
362, 2239186554, -88.71182250976562, -64.52283477783203, -160.07183837890625, 9.03477668762207, -3.9973325729370117, -0.20091918110847473, 0.760819673538208, -6.788746356964111, 0.9637612700462341, 
363, 2239194887, -88.83137512207031, -64.5198974609375, -159.93373107910156, 9.027113914489746, -4.007622241973877, -0.2208392322063446, 0.7335916757583618, -6.969876289367676, 1.0721606016159058, 
364, 2239203220, -88.9764175415039, -64.53206634521484, -159.78286743164062, 9.01867389678955, -4.021424770355225, -0.21802952885627747, 0.6482962369918823, -7.2323198318481445, 1.0509777069091797, 
365, 2239211553, -89.10503387451172, -64.52909851074219, -159.637451171875, 9.041496276855469, -4.01275110244751, -0.21382346749305725, 0.437235027551651, -7.344972133636475, 1.0545125007629395, 
366, 2239219886, -89.25837707519531, -64.54146575927734, -159.47557067871094, 9.029240608215332, -4.007101535797119, -0.20852383971214294, 0.4195612072944641, -7.566944599151611, 0.994805634021759, 
367, 2239228219, -89.3945083618164, -64.5385971069336, -159.32305908203125, 9.047550201416016, -4.01809024810791, -0.2240714132785797, 0.31026530265808105, -7.706620216369629, 1.0137859582901, 
368, 2239236552, -89.55714416503906, -64.55134582519531, -159.14739990234375, 9.02811050415039, -4.001458168029785, -0.20193716883659363, 0.2121371477842331, -7.972034454345703, 0.9128915071487427, 
369, 2239244885, -89.70269775390625, -64.54840850830078, -158.9869384765625, 9.054844856262207, -4.014571666717529, -0.22777116298675537, 0.040701016783714294, -8.112860679626465, 0.9903231263160706, 
370, 2239253218, -89.87213897705078, -64.55963897705078, -158.80911254882812, 9.041595458984375, -3.9969232082366943, -0.19771511852741241, -0.014894676394760609, -8.22292423248291, 1.051208257675171, 
371, 2239261551, -90.02554321289062, -64.55752563476562, -158.6409912109375, 9.04449462890625, -4.002213478088379, -0.23081201314926147, -0.06970913708209991, -8.509471893310547, 0.8551568388938904, 
372, 2239269884, -90.20365142822266, -64.56912231445312, -158.43896484375, 9.056492805480957, -3.9995484352111816, -0.24735859036445618, -0.09037983417510986, -8.661595344543457, 0.9595348834991455, 
373, 2239278217, -90.36167907714844, -64.56568908691406, -158.26690673828125, 9.059616088867188, -4.0176520347595215, -0.2362983226776123, -0.19834384322166443, -8.705242156982422, 0.9658615589141846, 
374, 2239286550, -90.54574584960938, -64.57675170898438, -158.08326721191406, 9.057499885559082, -3.9981963634490967, -0.23623645305633545, -0.2848687171936035, -8.883721351623535, 0.9647089242935181, 
375, 2239294883, -90.710693359375, -64.57257843017578, -157.90419006347656, 9.055824279785156, -4.002049922943115, -0.2311159372329712, -0.256513774394989, -9.066633224487305, 0.9989553093910217, 
376, 2239303216, -90.90155029296875, -64.58368682861328, -157.70973205566406, 9.072500228881836, -3.9976372718811035, -0.23630991578102112, -0.3754919171333313, -9.211071968078613, 0.8991366624832153, 
377, 2239311549, -91.07079315185547, -64.5793685913086, -157.52745056152344, 9.065016746520996, -4.005319118499756, -0.25632235407829285, -0.42088040709495544, -9.230794906616211, 0.9621732234954834, 
378, 2239319882, -91.26435089111328, -64.58914184570312, -157.35205078125, 9.075011253356934, -4.005537033081055, -0.24787603318691254, -0.41731998324394226, -9.330127716064453, 1.000261664390564, 
379, 2239328215, -91.43802642822266, -64.58518981933594, -157.16549682617188, 9.047321319580078, -4.008516311645508, -0.24830135703086853, -0.48135554790496826, -9.451949119567871, 0.8602285385131836, 
380, 2239336548, -91.63619995117188, -64.59556579589844, -156.945068359375, 9.05759048461914, -3.9764111042022705, -0.2693577706813812, -0.44083383679389954, -9.569696426391602, 0.8521600365638733, 
381, 2239344881, -91.81220245361328, -64.59042358398438, -156.7559051513672, 9.073448181152344, -4.003634452819824, -0.23285172879695892, -0.48450613021850586, -9.582249641418457, 0.942680835723877, 
382, 2239353214, -92.01270294189453, -64.59906005859375, -156.5514373779297, 9.051446914672852, -4.0035200119018555, -0.23496794700622559, -0.46388664841651917, -9.68759822845459, 0.9953692555427551, 
383, 2239361547, -92.191162109375, -64.5933609008789, -156.35989379882812, 9.059691429138184, -4.002187728881836, -0.25118449330329895, -0.5075845122337341, -9.708884239196777, 0.9433466792106628, 
384, 2239369880, -92.3948745727539, -64.60214233398438, -156.15049743652344, 9.06540584564209, -4.008315563201904, -0.24728211760520935, -0.5976954102516174, -9.799942016601562, 0.9042849540710449, 
385, 2239378213, -92.57471466064453, -64.59647369384766, -155.95736694335938, 9.054265022277832, -4.021960735321045, -0.2611628770828247, -0.5025385618209839, -9.789619445800781, 0.8744956254959106, 
386, 2239386546, -92.7796630859375, -64.6042251586914, -155.7917938232422, 9.065793991088867, -4.036193370819092, -0.2268262356519699, -0.7199520468711853, -9.807446479797363, 0.9475473761558533, 
387, 2239394879, -92.9610824584961, -64.59745788574219, -155.59783935546875, 9.06789779663086, -4.008309364318848, -0.23220981657505035, -0.5823523998260498, -9.84574031829834, 0.9460360407829285, 
388, 2239403212, -93.16434478759766, -64.60436248779297, -155.4041290283203, 9.057500839233398, -4.025498390197754, -0.25498783588409424, -0.5894988775253296, -9.793078422546387, 0.9850721955299377, 
389, 2239411545, -93.34626007080078, -64.59663391113281, -155.20909118652344, 9.06455135345459, -4.032968521118164, -0.23662902414798737, -0.526462197303772, -9.905293464660645, 0.9949080944061279, 
390, 2239419878, -93.55282592773438, -64.603271484375, -155.01705932617188, 9.070637702941895, -4.0228271484375, -0.22459326684474945, -0.5751676559448242, -9.988861083984375, 0.9255320429801941, 
391, 2239428211, -93.73397827148438, -64.59590911865234, -154.8232879638672, 9.078604698181152, -4.014078140258789, -0.23110172152519226, -0.5693147778511047, -9.84051513671875, 0.8932451605796814, 
392, 2239436544, -93.93659210205078, -64.601806640625, -154.6338653564453, 9.053011894226074, -4.007266998291016, -0.23933017253875732, -0.5975160598754883, -9.773277282714844, 0.9602007865905762, 
393, 2239444877, -94.11644744873047, -64.59341430664062, -154.44149780273438, 9.071338653564453, -4.030806064605713, -0.24539650976657867, -0.5560978651046753, -9.780322074890137, 0.9572296738624573, 
394, 2239453210, -94.31909942626953, -64.59860229492188, -154.2648162841797, 9.068277359008789, -4.020268440246582, -0.23418840765953064, -0.6063017845153809, -9.789440155029297, 0.9691402316093445, 
395, 2239461543, -94.49859619140625, -64.58958435058594, -154.07313537597656, 9.065035820007324, -4.0237812995910645, -0.2505621612071991, -0.5794067978858948, -9.754042625427246, 0.9748778343200684, 
396, 2239469876, -94.69776916503906, -64.59449005126953, -153.84353637695312, 9.082919120788574, -4.015698432922363, -0.26757678389549255, -0.5531778335571289, -9.645180702209473, 0.9513638019561768, 
397, 2239478209, -94.8721923828125, -64.58590698242188, -153.65704345703125, 9.071554183959961, -4.004471302032471, -0.26623624563217163, -0.5455704927444458, -9.478485107421875, 0.8828203678131104, 
398, 2239486542, -95.06566619873047, -64.59051513671875, -153.46099853515625, 9.072766304016113, -4.009308338165283, -0.2563405930995941, -0.48699072003364563, -9.370803833007812, 0.938326358795166, 
399, 2239494875, -95.23668670654297, -64.58111572265625, -153.2770233154297, 9.078158378601074, -4.019704341888428, -0.2551286220550537, -0.4005298614501953, -9.362823486328125, 0.9363029599189758, 
400, 2239503208, -95.4276123046875, -64.58477783203125, -153.1211395263672, 9.09911823272705, -4.014090538024902, -0.24166159331798553, -0.3910013735294342, -9.302271842956543, 0.9984814524650574, 
401, 2239511541, -95.59309387207031, -64.57469177246094, -152.94329833984375, 9.07787799835205, -4.00674295425415, -0.24351736903190613, -0.38577601313591003, -9.06595516204834, 0.99179607629776, 
402, 2239519874, -95.77667999267578, -64.57808685302734, -152.7784423828125, 9.075481414794922, -4.00582218170166, -0.25402331352233887, -0.2112022191286087, -8.999600410461426, 0.9960095882415771, 
403, 2239528207, -95.93439483642578, -64.568115234375, -152.6070098876953, 9.078878402709961, -4.004915714263916, -0.29473841190338135, -0.15374945104122162, -8.735901832580566, 0.964068591594696, 
404, 2239536540, -96.11238098144531, -64.5711898803711, -152.42601013183594, 9.071322441101074, -4.027178764343262, -0.26840940117836, -0.2265707403421402, -8.712336540222168, 1.0210859775543213, 
405, 2239544873, -96.26637268066406, -64.56100463867188, -152.2578125, 9.067546844482422, -4.003202438354492, -0.24229936301708221, -0.06333120167255402, -8.573661804199219, 0.9585359692573547, 
406, 2239553206, -96.43633270263672, -64.5641098022461, -152.0902557373047, 9.080681800842285, -4.022030830383301, -0.263932466506958, -0.03400289639830589, -8.374381065368652, 0.9913476705551147, 
407, 2239561539, -96.58335876464844, -64.55301666259766, -151.92904663085938, 9.062774658203125, -4.016386985778809, -0.2510826587677002, 0.022105084732174873, -8.233708381652832, 1.0636566877365112, 
408, 2239569872, -96.74435424804688, -64.55618286132812, -151.7600860595703, 9.09036922454834, -4.014066696166992, -0.27351289987564087, 0.08395066857337952, -7.9600348472595215, 0.9941014051437378, 
409, 2239578205, -96.88390350341797, -64.54541015625, -151.60499572753906, 9.082596778869629, -4.018619060516357, -0.2619197368621826, 0.25583499670028687, -7.914889812469482, 1.0192674398422241, 
410, 2239586538, -97.03636932373047, -64.54810333251953, -151.44676208496094, 9.07780933380127, -4.0240607261657715, -0.28612637519836426, 0.3693060874938965, -7.651651859283447, 1.0428324937820435, 
411, 2239594871, -97.16961669921875, -64.5380859375, -151.2980499267578, 9.071258544921875, -4.0211663246154785, -0.28429991006851196, 0.31760373711586, -7.582993030548096, 0.9383136034011841, 
412, 2239603204, -97.31363677978516, -64.5409927368164, -151.14735412597656, 9.070857048034668, -4.01790714263916, -0.2781473994255066, 0.5871935486793518, -7.310277462005615, 1.0234040021896362, 
413, 2239611537, -97.43624877929688, -64.53059387207031, -151.00787353515625, 9.083333969116211, -4.024499893188477, -0.28056055307388306, 0.5999878644943237, -7.119234085083008, 1.0083301067352295, 
414, 2239619870, -97.57244110107422, -64.53356170654297, -150.86380004882812, 9.06239128112793, -4.026057243347168, -0.2868647873401642, 0.656134307384491, -6.936501979827881, 1.0306144952774048, 
415, 2239628203, -97.68346405029297, -64.52372741699219, -150.73545837402344, 9.061506271362305, -4.017880439758301, -0.2725142240524292, 0.7834625840187073, -6.54047966003418, 0.9905792474746704, 
416, 2239636536, -97.8092269897461, -64.52657318115234, -150.5948028564453, 9.076961517333984, -4.021766185760498, -0.31064653396606445, 0.8834094405174255, -6.492683410644531, 1.0740303993225098, 
417, 2239644869, -97.91328430175781, -64.51702880859375, -150.47181701660156, 9.068909645080566, -4.026890754699707, -0.29972219467163086, 1.0383626222610474, -6.264550685882568, 0.9718424677848816, 
418, 2239653202, -98.02764129638672, -64.52041625976562, -150.3487091064453, 9.061407089233398, -4.012475967407227, -0.282895565032959, 1.1200722455978394, -5.990170955657959, 1.0538080930709839, 
419, 2239661535, -98.12156677246094, -64.51110076904297, -150.23556518554688, 9.070843696594238, -3.996995687484741, -0.30707311630249023, 1.1844022274017334, -5.757989883422852, 1.0001589059829712, 
420, 2239669868, -98.2257080078125, -64.51517486572266, -150.11297607421875, 9.070056915283203, -4.026849269866943, -0.2530038058757782, 1.359296202659607, -5.550873756408691, 1.0086630582809448, 
421, 2239678201, -98.30850219726562, -64.50499725341797, -150.00958251953125, 9.064922332763672, -4.012607097625732, -0.28780514001846313, 1.4654672145843506, -5.275008678436279, 1.1562522649765015, 
422, 2239686534, -98.4010238647461, -64.50865173339844, -149.89772033691406, 9.070560455322266, -4.033461093902588, -0.27424564957618713, 1.5416183471679688, -5.034490585327148, 1.1273592710494995, 
423, 2239694867, -98.4738998413086, -64.50000762939453, -149.803955078125, 9.051704406738281, -4.020615100860596, -0.2572806477546692, 1.6161174774169922, -4.759868144989014, 1.0328556299209595, 
424, 2239703200, -98.55411529541016, -64.50424194335938, -149.70326232910156, 9.049271583557129, -4.017189025878906, -0.27758798003196716, 1.7211614847183228, -4.454059600830078, 1.1232739686965942, 
425, 2239711533, -98.61461639404297, -64.49519348144531, -149.62071228027344, 9.069361686706543, -4.047801971435547, -0.26001089811325073, 1.8868342638015747, -4.194664478302002, 1.1604658365249634, 
426, 2239719866, -98.6826400756836, -64.49984741210938, -149.53079223632812, 9.061507225036621, -4.005646228790283, -0.26131391525268555, 1.9879720211029053, -3.9338085651397705, 1.1476202011108398, 
427, 2239728199, -98.73257446289062, -64.49166107177734, -149.4581756591797, 9.067813873291016, -4.005738258361816, -0.254786878824234, 2.072601318359375, -3.6724541187286377, 1.134147047996521, 
428, 2239736532, -98.78874969482422, -64.49746704101562, -149.3802947998047, 9.075578689575195, -3.9980690479278564, -0.25559794902801514, 2.177414655685425, -3.3752260208129883, 1.0847371816635132, 
429, 2239744865, -98.82667541503906, -64.48986053466797, -149.3188934326172, 9.066300392150879, -4.032816410064697, -0.25929802656173706, 2.303180694580078, -3.0888843536376953, 1.148542046546936, 
430, 2239753198, -98.87018585205078, -64.4961929321289, -149.2520751953125, 9.066575050354004, -4.013609886169434, -0.28056392073631287, 2.466240882873535, -2.8330752849578857, 1.1033074855804443, 
431, 2239761531, -98.89753723144531, -64.48978424072266, -149.2002410888672, 9.071043014526367, -4.013708114624023, -0.272513210773468, 2.5351943969726562, -2.581568956375122, 1.0833028554916382, 
432, 2239769864, -98.9283447265625, -64.4959945678711, -149.1446533203125, 9.060707092285156, -4.007254600524902, -0.29469940066337585, 2.755669116973877, -2.297238349914551, 1.2012691497802734, 
433, 2239778197, -98.94217681884766, -64.48910522460938, -149.1056671142578, 9.056861877441406, -4.001698970794678, -0.30955401062965393, 2.764275550842285, -1.9321843385696411, 1.2466576099395752, 
434, 2239786530, -98.95867156982422, -64.49604034423828, -149.0633544921875, 9.05693531036377, -3.995481252670288, -0.2553911805152893, 2.989809036254883, -1.632472276687622, 1.2208385467529297, 
435, 2239794863, -98.95970153808594, -64.49076843261719, -149.03599548339844, 9.05928897857666, -4.010302543640137, -0.265117347240448, 3.046365261077881, -1.3089131116867065, 1.150604248046875, 
436, 2239803196, -98.96661376953125, -64.49832916259766, -149.00416564941406, 9.049887657165527, -4.010097980499268, -0.28838977217674255, 3.0526533126831055, -1.1557015180587769, 1.2259485721588135, 
437, 2239811529, -98.95745086669922, -64.49327850341797, -148.98634338378906, 9.050799369812012, -4.001584053039551, -0.28239214420318604, 3.2372167110443115, -0.8192970156669617, 1.2062383890151978, 
438, 2239819862, -98.9510269165039, -64.50191497802734, -148.96546936035156, 9.060163497924805, -4.016264915466309, -0.2675870358943939, 3.4190003871917725, -0.5954027771949768, 1.1832365989685059, 
439, 2239828195, -98.92867279052734, -64.4967269897461, -148.95953369140625, 9.066363334655762, -4.0380682945251465, -0.26915082335472107, 3.5279505252838135, -0.21394285559654236, 1.325049877166748, 
440, 2239836528, -98.90768432617188, -64.50545501708984, -148.95225524902344, 9.094383239746094, -4.032558441162109, -0.27851182222366333, 3.6576359272003174, 0.06782650202512741, 1.2808654308319092, 
441, 2239844861, -98.8747787475586, -64.50189971923828, -148.955322265625, 9.075128555297852, -4.014975547790527, -0.2484595626592636, 3.820272922515869, 0.2762366831302643, 1.205981969833374, 
442, 2239853194, -98.84088134765625, -64.51207733154297, -148.95912170410156, 9.069768905639648, -4.023532867431641, -0.315232515335083, 3.978505849838257, 0.6262680888175964, 1.199796438217163, 
443, 2239861527, -98.79690551757812, -64.50897979736328, -148.97274780273438, 9.057632446289062, -4.0167460441589355, -0.2797563970088959, 4.00386381149292, 0.8236769437789917, 1.239831566810608, 
444, 2239869860, -98.75276184082031, -64.5191421508789, -148.9867706298828, 9.054234504699707, -4.012155055999756, -0.27320054173469543, 4.103157043457031, 1.1084176301956177, 1.273270845413208, 
445, 2239878193, -98.69660949707031, -64.51656341552734, -149.01226806640625, 9.086193084716797, -4.0224199295043945, -0.2816820442676544, 4.18336820602417, 1.4401092529296875, 1.2691341638565063, 
446, 2239886526, -98.64109802246094, -64.52772521972656, -149.03611755371094, 9.069474220275879, -4.004176616668701, -0.2859947681427002, 4.4394850730896, 1.5650297403335571, 1.2261790037155151, 
447, 2239894859, -98.57428741455078, -64.5250473022461, -149.07070922851562, 9.081257820129395, -4.00798225402832, -0.25600531697273254, 4.467301368713379, 1.901318907737732, 1.3606536388397217, 
448, 2239903192, -98.5057373046875, -64.53596496582031, -149.10633850097656, 9.045080184936523, -4.023786544799805, -0.29754433035850525, 4.623599529266357, 2.1758267879486084, 1.3410844802856445, 
449, 2239911525, -98.42765808105469, -64.53417205810547, -149.15045166015625, 9.038418769836426, -4.012396335601807, -0.26337751746177673, 4.793371200561523, 2.405407667160034, 1.3245378732681274, 
450, 2239919858, -98.34879302978516, -64.54578399658203, -149.1942901611328, 9.06711483001709, -4.011105060577393, -0.2882775366306305, 4.817499160766602, 2.6340653896331787, 1.3268173933029175, 
451, 2239928191, -98.26091766357422, -64.54480743408203, -149.2478485107422, 9.051606178283691, -4.03165864944458, -0.297097384929657, 4.947824954986572, 2.8982508182525635, 1.2933396100997925, 
452, 2239936524, -98.16912841796875, -64.5567398071289, -149.30487060546875, 9.065225601196289, -4.009718418121338, -0.2964077293872833, 5.04541540145874, 3.224780797958374, 1.3671084642410278, 
453, 2239944857, -98.06842041015625, -64.55663299560547, -149.3709259033203, 9.069977760314941, -4.00820255279541, -0.2793842852115631, 5.129788398742676, 3.551618814468384, 1.278175950050354, 
454, 2239953190, -97.9652099609375, -64.56845092773438, -149.43853759765625, 9.066645622253418, -4.025726795196533, -0.29448243975639343, 5.327402114868164, 3.7005398273468018, 1.4387770891189575, 
455, 2239961523, -97.8562240600586, -64.56832122802734, -149.5117645263672, 9.067684173583984, -4.014858722686768, -0.2966058552265167, 5.342898845672607, 3.9167749881744385, 1.3218737840652466, 
456, 2239969856, -97.74547576904297, -64.58141326904297, -149.58641052246094, 9.069421768188477, -4.013042449951172, -0.2875135838985443, 5.39243745803833, 4.08267879486084, 1.317903757095337, 
457, 2239978189, -97.62689208984375, -64.5811996459961, -149.66799926757812, 9.085836410522461, -4.030429840087891, -0.26519399881362915, 5.587745189666748, 4.341638565063477, 1.3824515342712402, 
458, 2239986522, -97.50662994384766, -64.59318542480469, -149.75509643554688, 9.080620765686035, -4.01699686050415, -0.27302491664886475, 5.609005451202393, 4.46497106552124, 1.4933868646621704, 
459, 2239994855, -97.38048553466797, -64.59201049804688, -149.8440399169922, 9.067580223083496, -4.0118088722229, -0.278531014919281, 5.702087879180908, 4.703362941741943, 1.5239957571029663, 
460, 2240003188, -97.25032043457031, -64.60565948486328, -149.93824768066406, 9.06648063659668, -3.997333526611328, -0.26979315280914307, 5.866966724395752, 4.891372203826904, 1.333041787147522, 
461, 2240011521, -97.11478424072266, -64.60594940185547, -150.03526306152344, 9.079729080200195, -4.021128177642822, -0.28056734800338745, 5.957027435302734, 5.136987209320068, 1.3861912488937378, 
462, 2240019854, -96.9752197265625, -64.61822509765625, -150.132568359375, 9.079697608947754, -4.006107807159424, -0.24876032769680023, 5.918105602264404, 5.350110054016113, 1.5289011001586914, 
463, 2240028187, -96.83294677734375, -64.61824798583984, -150.23587036132812, 9.064953804016113, -4.009799480438232, -0.2604769170284271, 6.078296184539795, 5.45318078994751, 1.4355369806289673, 
464, 2240036520, -96.68724060058594, -64.63082122802734, -150.34854125976562, 9.08556842803955, -3.9948923587799072, -0.2406667023897171, 6.153255462646484, 5.5610551834106445, 1.4930024147033691, 
465, 2240044853, -96.53538513183594, -64.6307373046875, -150.46087646484375, 9.059249877929688, -4.017427444458008, -0.2557609975337982, 6.243700981140137, 5.912969589233398, 1.4843449592590332, 
466, 2240053186, -96.38267517089844, -64.64373779296875, -150.59133911132812, 9.067668914794922, -4.010669231414795, -0.2533338665962219, 6.177974700927734, 5.922062873840332, 1.45176362991333, 
467, 2240061519, -96.22754669189453, -64.644775390625, -150.7068328857422, 9.059639930725098, -4.024046421051025, -0.26284146308898926, 6.306711196899414, 6.086966514587402, 1.338061809539795, 
468, 2240069852, -96.06700897216797, -64.65801239013672, -150.82846069335938, 9.07184886932373, -4.019087791442871, -0.2577696442604065, 6.388933181762695, 6.237451553344727, 1.4288389682769775, 
469, 2240078185, -95.90592193603516, -64.65786743164062, -150.949462890625, 9.089930534362793, -4.027486324310303, -0.2698761224746704, 6.4158806800842285, 6.354866981506348, 1.4785051345825195, 
470, 2240086518, -95.73794555664062, -64.67086791992188, -151.07823181152344, 9.063565254211426, -4.020296096801758, -0.24813270568847656, 6.514776706695557, 6.573869228363037, 1.4506112337112427, 
471, 2240094851, -95.57240295410156, -64.67056274414062, -151.20294189453125, 9.06727409362793, -4.019718170166016, -0.24811187386512756, 6.542644500732422, 6.5424652099609375, 1.4836024045944214, 
472, 2240103184, -95.40267944335938, -64.6831283569336, -151.33575439453125, 9.072808265686035, -4.0193257331848145, -0.2483784556388855, 6.603094577789307, 6.609216213226318, 1.470001220703125, 
473, 2240111517, -95.23043823242188, -64.68335723876953, -151.46766662597656, 9.065043449401855, -4.005834102630615, -0.2624443471431732, 6.559383869171143, 6.915012359619141, 1.4241389036178589, 
474, 2240119850, -95.05683898925781, -64.69549560546875, -151.6015167236328, 9.085858345031738, -4.020157337188721, -0.24621787667274475, 6.5540690422058105, 6.824530124664307, 1.4950774908065796, 
475, 2240128183, -94.88347625732422, -64.69515991210938, -151.73358154296875, 9.064122200012207, -4.004675388336182, -0.2544783353805542, 6.671919822692871, 6.9174323081970215, 1.4554264545440674, 
476, 2240136516, -94.70391082763672, -64.70655822753906, -151.86663818359375, 9.071649551391602, -3.991687774658203, -0.2645721733570099, 6.745892524719238, 7.049856662750244, 1.5582674741744995, 
477, 2240144849, -94.52936553955078, -64.70596313476562, -151.9994659423828, 9.065434455871582, -4.010590553283691, -0.2697839140892029, 6.7261576652526855, 6.955302715301514, 1.453774333000183, 
478, 2240153182, -94.35086059570312, -64.71807098388672, -152.13645935058594, 9.077603340148926, -4.018648147583008, -0.2533981502056122, 6.678348541259766, 7.015457630157471, 1.427686333656311, 
479, 2240161515, -94.17439270019531, -64.71705627441406, -152.27108764648438, 9.080215454101562, -4.026383399963379, -0.2565341889858246, 6.770200729370117, 7.04158353805542, 1.4676698446273804, 
480, 2240169848, -93.99372100830078, -64.72882080078125, -152.41079711914062, 9.070700645446777, -4.0258378982543945, -0.24266864359378815, 6.775169849395752, 7.076598167419434, 1.4293512105941772, 
481, 2240178181, -93.81770324707031, -64.72734069824219, -152.54470825195312, 9.081369400024414, -4.0159149169921875, -0.23896323144435883, 6.795405387878418, 6.999704360961914, 1.481091856956482, 
482, 2240186514, -93.63623809814453, -64.7378921508789, -152.64378356933594, 9.069029808044434, -4.012162208557129, -0.2364443689584732, 6.778705596923828, 7.096398830413818, 1.5333962440490723, 
483, 2240194847, -93.45890808105469, -64.73651885986328, -152.77899169921875, 9.07637882232666, -4.020138740539551, -0.26476216316223145, 6.7972235679626465, 7.074267387390137, 1.4292230606079102, 
484, 2240203180, -93.27616119384766, -64.74720001220703, -152.8980255126953, 9.077335357666016, -4.026099681854248, -0.25055697560310364, 6.873349189758301, 7.122294902801514, 1.4663381576538086, 
485, 2240211513, -93.09901428222656, -64.74541473388672, -153.0335693359375, 9.0570650100708, -4.0166168212890625, -0.2599984109401703, 6.729448318481445, 7.093016624450684, 1.4449502229690552, 
486, 2240219846, -92.9179916381836, -64.75503540039062, -153.19302368164062, 9.081338882446289, -4.023940086364746, -0.26950356364250183, 6.74732780456543, 7.083309650421143, 1.5510956048965454, 
487, 2240228179, -92.74231719970703, -64.75274658203125, -153.32655334472656, 9.066502571105957, -3.999187707901001, -0.24128788709640503, 6.787721633911133, 6.9770612716674805, 1.4596785306930542, 
488, 2240236512, -92.56399536132812, -64.7625961303711, -153.4752960205078, 9.084441184997559, -4.010684013366699, -0.2547746002674103, 6.711787223815918, 6.949846267700195, 1.4704235792160034, 
489, 2240244845, -92.39093017578125, -64.75951385498047, -153.60641479492188, 9.074320793151855, -4.021903038024902, -0.23481999337673187, 6.736581802368164, 6.851564407348633, 1.5081278085708618, 
490, 2240253178, -92.21408081054688, -64.76860046386719, -153.77174377441406, 9.059700012207031, -4.020528316497803, -0.23604872822761536, 6.797684669494629, 6.825962543487549, 1.5144671201705933, 
491, 2240261511, -92.04365539550781, -64.76588439941406, -153.90057373046875, 9.049076080322266, -4.006282806396484, -0.2294662743806839, 6.670460224151611, 6.73439359664917, 1.4275071620941162, 
492, 2240269844, -91.87264251708984, -64.77561950683594, -153.9996795654297, 9.06403636932373, -4.019930839538574, -0.25371360778808594, 6.656935691833496, 6.560293197631836, 1.3748443126678467, 
493, 2240278177, -91.70441436767578, -64.7717056274414, -154.12631225585938, 9.032978057861328, -3.997039556503296, -0.25815826654434204, 6.619666576385498, 6.630092144012451, 1.531475305557251, 
494, 2240286510, -91.53731536865234, -64.78034973144531, -154.3099365234375, 9.058488845825195, -3.998413324356079, -0.22460685670375824, 6.600635051727295, 6.382607460021973, 1.4707952737808228, 
495, 2240294843, -91.37619018554688, -64.77686309814453, -154.43020629882812, 9.046470642089844, -3.9979684352874756, -0.23792855441570282, 6.497614860534668, 6.2906012535095215, 1.435396432876587, 
496, 2240303176, -91.2149658203125, -64.785400390625, -154.55191040039062, 9.048638343811035, -4.0377397537231445, -0.23327550292015076, 6.381172180175781, 6.153768539428711, 1.4370867013931274, 
497, 2240311509, -91.05831146240234, -64.78089904785156, -154.6675262451172, 9.039019584655762, -4.019369602203369, -0.2419772893190384, 6.454249858856201, 6.0582275390625, 1.5186935663223267, 
498, 2240319842, -90.90349578857422, -64.78874969482422, -154.76220703125, 9.053067207336426, -4.0033392906188965, -0.21166597306728363, 6.23862886428833, 5.866710186004639, 1.4769681692123413, 
499, 2240328175, -90.75275421142578, -64.7840805053711, -154.87310791015625, 9.041823387145996, -4.006150245666504, -0.2555905878543854, 6.247004508972168, 5.823242664337158, 1.5081919431686401, 
500, 2240336508, -90.60421752929688, -64.7925033569336, -154.96725463867188, 9.036046981811523, -3.9827017784118652, -0.24932092428207397, 6.1295881271362305, 5.577832221984863, 1.3667242527008057, 
501, 2240344841, -90.46119689941406, -64.78776550292969, -155.070556640625, 9.049736022949219, -4.005755424499512, -0.21873998641967773, 6.14108943939209, 5.4386444091796875, 1.4880332946777344, 
502, 2240353174, -90.31990051269531, -64.79556274414062, -155.19595336914062, 9.053942680358887, -3.99790096282959, -0.22767651081085205, 6.024494647979736, 5.239367485046387, 1.4191057682037354, 
503, 2240361507, -90.184326171875, -64.79100036621094, -155.2926483154297, 9.022942543029785, -4.001018047332764, -0.22541594505310059, 5.97472620010376, 5.094185829162598, 1.44661545753479, 
504, 2240369840, -90.04923248291016, -64.79869079589844, -155.3706512451172, 9.04226303100586, -3.998271942138672, -0.2033877968788147, 5.9519548416137695, 4.935684680938721, 1.3982813358306885, 
505, 2240378173, -89.92218780517578, -64.79319763183594, -155.4599151611328, 9.04728889465332, -3.989860773086548, -0.22701232135295868, 5.753239154815674, 4.720755100250244, 1.532013177871704, 
506, 2240386506, -89.79943084716797, -64.80091094970703, -155.53627014160156, 9.056208610534668, -3.9987058639526367, -0.2267029881477356, 5.620480537414551, 4.410003185272217, 1.3792755603790283, 
507, 2240394839, -89.68196868896484, -64.7967529296875, -155.6170196533203, 9.040812492370605, -3.9984238147735596, -0.1976119428873062, 5.528013229370117, 4.289539337158203, 1.3580924272537231, 
508, 2240403172, -89.56668853759766, -64.80379486083984, -155.7096710205078, 9.040688514709473, -4.016012668609619, -0.20596078038215637, 5.448378562927246, 4.09320592880249, 1.4443868398666382, 
509, 2240411505, -89.45738220214844, -64.7997817993164, -155.78201293945312, 9.03387451171875, -4.020169734954834, -0.2250456064939499, 5.466640949249268, 3.855992317199707, 1.3340405225753784, 
510, 2240419838, -89.35001373291016, -64.80814361572266, -155.85369873046875, 9.038591384887695, -4.011552333831787, -0.21024207770824432, 5.337852954864502, 3.715216875076294, 1.2656762599945068, 
511, 2240428171, -89.250244140625, -64.80404663085938, -155.9179229736328, 9.046133041381836, -4.009241580963135, -0.22153088450431824, 5.194208145141602, 3.4448325634002686, 1.3405719995498657, 
512, 2240436504, -89.15531921386719, -64.81182098388672, -155.97276306152344, 9.013113021850586, -3.995544195175171, -0.22364504635334015, 5.114317417144775, 3.141022205352783, 1.327227234840393, 
513, 2240444837, -89.0654525756836, -64.80717468261719, -156.02711486816406, 9.0328950881958, -4.004166126251221, -0.20630468428134918, 5.080071449279785, 2.9415388107299805, 1.4037625789642334, 
514, 2240453170, -88.98039245605469, -64.8148422241211, -156.0811004638672, 9.028629302978516, -3.990079641342163, -0.21981577575206757, 4.87782096862793, 2.720615863800049, 1.3399829864501953, 
515, 2240461503, -88.90286254882812, -64.81039428710938, -156.12503051757812, 9.028929710388184, -3.999635696411133, -0.21410289406776428, 4.738633155822754, 2.4083783626556396, 1.383527159690857, 
516, 2240469836, -88.83043670654297, -64.81792449951172, -156.15872192382812, 9.029789924621582, -3.983950614929199, -0.2125113308429718, 4.596321105957031, 2.1611242294311523, 1.3599367141723633, 
517, 2240478169, -88.76254272460938, -64.81389617919922, -156.19374084472656, 9.033683776855469, -3.995387315750122, -0.2052449733018875, 4.54237699508667, 1.9562616348266602, 1.3405721187591553, 
518, 2240486502, -88.70002746582031, -64.82195281982422, -156.2273406982422, 9.037714958190918, -4.009608268737793, -0.24160312116146088, 4.430469036102295, 1.7056264877319336, 1.3012545108795166, 
519, 2240494835, -88.6440658569336, -64.81829071044922, -156.25137329101562, 9.027695655822754, -3.9980571269989014, -0.20882189273834229, 4.304549217224121, 1.3953866958618164, 1.3111414909362793, 
520, 2240503168, -88.5936508178711, -64.8264389038086, -156.2704620361328, 9.022013664245605, -4.001208782196045, -0.2188311219215393, 4.158830165863037, 1.172798991203308, 1.2981808185577393, 
521, 2240511501, -88.54835510253906, -64.82242584228516, -156.28463745117188, 9.037088394165039, -4.015791416168213, -0.20834966003894806, 4.0948967933654785, 0.893142819404602, 1.3679027557373047, 
522, 2240519834, -88.5110092163086, -64.83087158203125, -156.29115295410156, 9.036983489990234, -3.998162269592285, -0.224793940782547, 3.949817419052124, 0.5642815232276917, 1.2702610492706299, 
523, 2240528167, -88.4775161743164, -64.8277816772461, -156.29444885253906, 9.007376670837402, -3.9949796199798584, -0.22010254859924316, 3.858886480331421, 0.3357769846916199, 1.2722333669662476, 
524, 2240536500, -88.45221710205078, -64.8366928100586, -156.2875518798828, 9.013769149780273, -3.9882144927978516, -0.2336960732936859, 3.795926809310913, -0.02173367515206337, 1.2325056791305542, 
525, 2240544833, -88.4324951171875, -64.83394622802734, -156.2778778076172, 9.024038314819336, -4.007824420928955, -0.23043256998062134, 3.619009494781494, -0.3265942931175232, 1.251076102256775, 
526, 2240553166, -88.4180908203125, -64.84260559082031, -156.2651824951172, 9.025801658630371, -3.9812870025634766, -0.21328535676002502, 3.5037450790405273, -0.4653209447860718, 1.2731809616088867, 
527, 2240561499, -88.40797424316406, -64.8404769897461, -156.2467041015625, 9.011800765991211, -4.005295753479004, -0.20922228693962097, 3.4228808879852295, -0.7789159417152405, 1.1927011013031006, 
528, 2240569832, -88.40878295898438, -64.85025024414062, -156.2171173095703, 9.009411811828613, -3.972301721572876, -0.18459127843379974, 3.212768316268921, -1.1603121757507324, 1.1528455018997192, 
529, 2240578165, -88.41138458251953, -64.84862518310547, -156.18731689453125, 9.007486343383789, -3.9940056800842285, -0.21912482380867004, 3.1233232021331787, -1.3560817241668701, 1.152794361114502, 
530, 2240586498, -88.42536163330078, -64.85819244384766, -156.14601135253906, 9.002768516540527, -3.9750821590423584, -0.2296465039253235, 2.983135938644409, -1.7689318656921387, 1.1966713666915894, 
531, 2240594831, -88.44027709960938, -64.85641479492188, -156.1051788330078, 9.02392864227295, -3.989893674850464, -0.21424728631973267, 2.8475091457366943, -1.9187498092651367, 1.1865026950836182, 
532, 2240603164, -88.46752166748047, -64.86582946777344, -156.05093383789062, 9.029457092285156, -4.013885498046875, -0.1956787109375, 2.7818593978881836, -2.3906404972076416, 1.2262557744979858, 
533, 2240611497, -88.49369049072266, -64.8638916015625, -155.9995880126953, 9.038922309875488, -3.998368978500366, -0.1855882704257965, 2.6379075050354004, -2.4529855251312256, 1.2239506244659424, 
534, 2240619830, -88.53044128417969, -64.87368774414062, -155.93699645996094, 9.029556274414062, -3.9968409538269043, -0.20817632973194122, 2.5571200847625732, -2.7993664741516113, 1.1878087520599365, 
535, 2240628163, -88.57073211669922, -64.87257385253906, -155.8730926513672, 9.016336441040039, -3.995363473892212, -0.2328055053949356, 2.3063571453094482, -3.0917787551879883, 1.1411908864974976, 
536, 2240636496, -88.62064361572266, -64.88269805908203, -155.79888916015625, 9.002715110778809, -4.005757808685303, -0.24531742930412292, 2.217270612716675, -3.3494582176208496, 1.1492339372634888, 
537, 2240644829, -88.66983032226562, -64.88157653808594, -155.7269744873047, 9.021052360534668, -3.9900636672973633, -0.2187606245279312, 2.1117146015167236, -3.501453399658203, 1.1482094526290894, 
538, 2240653162, -88.73048400878906, -64.8922119140625, -155.63729858398438, 9.030136108398438, -4.008735656738281, -0.18924561142921448, 2.0011379718780518, -3.8285984992980957, 1.0948293209075928, 
539, 2240661495, -88.79232025146484, -64.89148712158203, -155.5531005859375, 9.024223327636719, -4.010590076446533, -0.2114170640707016, 1.9252429008483887, -4.124340057373047, 1.1088402271270752, 
540, 2240669828, -88.86573028564453, -64.90213012695312, -155.4610595703125, 9.040689468383789, -3.99784517288208, -0.20600995421409607, 1.730164647102356, -4.390984535217285, 1.0934205055236816, 
541, 2240678161, -88.9379653930664, -64.90113830566406, -155.3673095703125, 9.056641578674316, -3.9947509765625, -0.21620561182498932, 1.7212255001068115, -4.609653472900391, 1.1428303718566895, 
542, 2240686494, -89.0210189819336, -64.91178894042969, -155.26918029785156, 9.042840003967285, -3.98704195022583, -0.2126619666814804, 1.5810385942459106, -4.836287498474121, 1.0868887901306152, 
543, 2240694827, -89.1045150756836, -64.91130828857422, -155.16526794433594, 9.03700065612793, -4.008087158203125, -0.22970634698867798, 1.4730747938156128, -5.126113414764404, 1.0820989608764648, 
544, 2240703160, -89.19912719726562, -64.9219970703125, -155.05189514160156, 9.01997184753418, -3.998927116394043, -0.2009149044752121, 1.347872257232666, -5.350723743438721, 1.0618125200271606, 
545, 2240711493, -89.29411315917969, -64.92127227783203, -154.93775939941406, 9.028911590576172, -3.9929981231689453, -0.21192999184131622, 1.2009234428405762, -5.641957759857178, 1.1089682579040527, 
546, 2240719826, -89.3982162475586, -64.93174743652344, -154.8126220703125, 9.036806106567383, -4.014464378356934, -0.1975129395723343, 1.1418057680130005, -5.758297920227051, 1.068651556968689, 
547, 2240728159, -89.50373840332031, -64.93045043945312, -154.688232421875, 9.021915435791016, -3.9895875453948975, -0.18888218700885773, 1.0589436292648315, -6.162106037139893, 1.1568411588668823, 
548, 2240736492, -89.61917114257812, -64.94060516357422, -154.55435180664062, 9.03695011138916, -4.014825344085693, -0.23780743777751923, 0.982459545135498, -6.303573131561279, 1.094163179397583, 
549, 2240744825, -89.73238372802734, -64.94007873535156, -154.4234161376953, 9.046329498291016, -4.00082540512085, -0.23399701714515686, 0.84767746925354, -6.4948601722717285, 1.0457524061203003, 
550, 2240753158, -89.8581771850586, -64.95083618164062, -154.26885986328125, 9.046491622924805, -4.012934684753418, -0.19566959142684937, 0.7423260807991028, -6.74849271774292, 0.9887863397598267, 
551, 2240761491, -89.98162841796875, -64.95063018798828, -154.12826538085938, 9.045432090759277, -4.006564140319824, -0.19691699743270874, 0.6673276424407959, -6.980532169342041, 0.9840476512908936, 
552, 2240769824, -90.1180419921875, -64.96044158935547, -153.9722442626953, 9.048650741577148, -4.000436782836914, -0.21216487884521484, 0.6738337874412537, -7.28762149810791, 1.062427282333374, 
553, 2240778157, -90.25065612792969, -64.95928192138672, -153.8230438232422, 9.047441482543945, -3.996079444885254, -0.19235023856163025, 0.5020646452903748, -7.415769577026367, 1.0663206577301025, 
554, 2240786490, -90.39762115478516, -64.96916198730469, -153.659912109375, 9.039505958557129, -3.997096538543701, -0.23942869901657104, 0.3306029438972473, -7.7004218101501465, 1.0121723413467407, 
555, 2240794823, -90.53911590576172, -64.96788787841797, -153.5032958984375, 9.046150207519531, -4.005897521972656, -0.2388773411512375, 0.2517879605293274, -7.788944721221924, 1.041090726852417, 
556, 2240803156, -90.69296264648438, -64.97805786132812, -153.33692932128906, 9.046422958374023, -4.003893852233887, -0.22177961468696594, 0.2099343091249466, -8.00950813293457, 0.9323070645332336, 
557, 2240811489, -90.84400939941406, -64.9774398803711, -153.1714324951172, 9.043394088745117, -3.99186635017395, -0.23323895037174225, 0.07002932578325272, -8.236449241638184, 0.9159393906593323, 
558, 2240819822, -91.00682067871094, -64.98622131347656, -152.99160766601562, 9.054156303405762, -4.03125, -0.21152792870998383, 0.0077354987151920795, -8.398177146911621, 1.0411930084228516, 
559, 2240828155, -91.1624755859375, -64.98506927490234, -152.8219757080078, 9.037181854248047, -4.009232997894287, -0.22637991607189178, -0.034873783588409424, -8.444616317749023, 0.9337670207023621, 
560, 2240836488, -91.32894134521484, -64.99373626708984, -152.65467834472656, 9.053694725036621, -4.002514362335205, -0.2588437795639038, -0.1358194798231125, -8.516772270202637, 0.9919881820678711, 
561, 2240844821, -91.49007415771484, -64.9910659790039, -152.4801025390625, 9.061773300170898, -4.001173973083496, -0.22090919315814972, -0.1456809937953949, -8.699631690979004, 1.0640153884887695, 
562, 2240853154, -91.66461944580078, -65.0002212524414, -152.32789611816406, 9.05607795715332, -4.002842426300049, -0.2068796455860138, -0.24465438723564148, -8.89998722076416, 0.870064377784729, 
563, 2240861487, -91.83313751220703, -64.99851989746094, -152.14666748046875, 9.054983139038086, -4.003810405731201, -0.24003703892230988, -0.2916053235530853, -9.036561965942383, 0.8871235847473145, 
564, 2240869820, -92.0128173828125, -65.00749206542969, -151.96836853027344, 9.069185256958008, -4.01013708114624, -0.2089456021785736, -0.2925274074077606, -9.15582275390625, 0.8247016668319702, 
565, 2240878153, -92.18317413330078, -65.0047378540039, -151.7859649658203, 9.070109367370605, -4.005793571472168, -0.22858452796936035, -0.39168012142181396, -9.095987319946289, 0.9576650857925415, 
566, 2240886486, -92.36600494384766, -65.01256561279297, -151.58865356445312, 9.05573558807373, -4.021785736083984, -0.22941184043884277, -0.4190361499786377, -9.270625114440918, 0.8922463655471802, 
567, 2240894819, -92.54108428955078, -65.00936126708984, -151.4005889892578, 9.054791450500488, -3.9881703853607178, -0.24710220098495483, -0.34114325046539307, -9.379563331604004, 0.9447557330131531, 
568, 2240903152, -92.72809600830078, -65.01595306396484, -151.19276428222656, 9.06635570526123, -4.013390064239502, -0.23818334937095642, -0.46378421783447266, -9.483351707458496, 0.9674497842788696, 
569, 2240911485, -92.90645599365234, -65.01189422607422, -151.00184631347656, 9.085455894470215, -4.0271806716918945, -0.24107763171195984, -0.4292561709880829, -9.524897575378418, 0.9842015504837036, 
570, 2240919818, -93.09500122070312, -65.0179443359375, -150.8719940185547, 9.069682121276855, -4.023608207702637, -0.22632957994937897, -0.49580198526382446, -9.536066055297852, 0.9504163265228271, 
571, 2240928151, -93.2734603881836, -65.01382446289062, -150.68154907226562, 9.053791046142578, -4.015162467956543, -0.2508949935436249, -0.4588406980037689, -9.5178804397583, 0.9294894933700562, 
572, 2240936484, -93.46025848388672, -65.01944732666016, -150.49468994140625, 9.062799453735352, -4.003353118896484, -0.2398088276386261, -0.39941561222076416, -9.491599082946777, 0.9425528049468994, 
573, 2240944817, -93.64261627197266, -65.01451110839844, -150.29974365234375, 9.063738822937012, -4.012536525726318, -0.2606067955493927, -0.45233461260795593, -9.742822647094727, 0.956717312335968, 
574, 2240953150, -93.8341064453125, -65.0196533203125, -150.08969116210938, 9.071332931518555, -4.027417182922363, -0.250637024641037, -0.5586336255073547, -9.685881614685059, 0.9203962683677673, 
575, 2240961483, -94.0164794921875, -65.01428985595703, -149.89578247070312, 9.055704116821289, -4.0121026039123535, -0.2637592852115631, -0.5680596828460693, -9.692618370056152, 0.9454469680786133, 
576, 2240969816, -94.20823669433594, -65.01825714111328, -149.7012481689453, 9.07715129852295, -4.012892246246338, -0.2460092157125473, -0.5539718866348267, -9.70914077758789, 0.9817937016487122, 
577, 2240978149, -94.38973999023438, -65.01273345947266, -149.50778198242188, 9.067305564880371, -3.986806869506836, -0.23792731761932373, -0.5047412514686584, -9.67322826385498, 0.9095614552497864, 
578, 2240986482, -94.58158874511719, -65.01622009277344, -149.29739379882812, 9.065815925598145, -4.025489807128906, -0.24907547235488892, -0.5427272915840149, -9.732321739196777, 0.9681156277656555, 
579, 2240994815, -94.7635726928711, -65.01026153564453, -149.10369873046875, 9.063051223754883, -4.009741306304932, -0.24904988706111908, -0.5443537831306458, -9.685433387756348, 0.8963317275047302, 
580, 2241003148, -94.95187377929688, -65.0135726928711, -148.93692016601562, 9.067832946777344, -4.008058547973633, -0.23476406931877136, -0.4683178961277008, -9.568928718566895, 0.9345866441726685, 
581, 2241011481, -95.13239288330078, -65.00690460205078, -148.7444305419922, 9.07165813446045, -4.007965564727783, -0.24144601821899414, -0.48676010966300964, -9.639314651489258, 0.9252886176109314, 
582, 2241019814, -95.3196792602539, -65.00991821289062, -148.57102966308594, 9.06541633605957, -4.005378246307373, -0.25611308217048645, -0.4555620551109314, -9.528817176818848, 0.8977790474891663, 
583, 2241028147, -95.4976577758789, -65.0029525756836, -148.38084411621094, 9.062169075012207, -3.993558883666992, -0.2565253674983978, -0.43186888098716736, -9.52838134765625, 0.9146077036857605, 
584, 2241036480, -95.68218994140625, -65.00492858886719, -148.1952667236328, 9.067792892456055, -4.016638278961182, -0.2420380562543869, -0.38417521119117737, -9.4367094039917, 0.9678340554237366, 
585, 2241044813, -95.8547134399414, -64.99781036376953, -148.0106964111328, 9.0733060836792, -4.020294666290283, -0.2185429334640503, -0.386685311794281, -9.248059272766113, 0.9013137817382812, 
586, 2241053146, -96.03509521484375, -64.99948120117188, -147.81500244140625, 9.067020416259766, -4.002780914306641, -0.21942925453186035, -0.2966000735759735, -9.264887809753418, 0.9534386992454529, 
587, 2241061479, -96.20569610595703, -64.99128723144531, -147.6316375732422, 9.082391738891602, -4.017943382263184, -0.2502416670322418, -0.2952425479888916, -9.200390815734863, 0.9819731116294861, 
588, 2241069812, -96.37972259521484, -64.9920883178711, -147.4373779296875, 9.070345878601074, -4.009357452392578, -0.2575349509716034, -0.20167367160320282, -8.984309196472168, 1.0274639129638672, 
589, 2241078145, -96.54560089111328, -64.98323822021484, -147.2584228515625, 9.073293685913086, -4.013800621032715, -0.26557591557502747, -0.20756497979164124, -8.987382888793945, 1.0302302837371826, 
590, 2241086478, -96.71292877197266, -64.98504638671875, -147.0775146484375, 9.071812629699707, -4.022072792053223, -0.2750547528266907, -0.12703381478786469, -8.649914741516113, 0.8885834813117981, 
591, 2241094811, -96.8718032836914, -64.97697448730469, -146.9051971435547, 9.069684028625488, -4.009424686431885, -0.24193283915519714, -0.09468302130699158, -8.64363956451416, 0.9286697506904602, 
592, 2241103144, -97.03761291503906, -64.97736358642578, -146.72364807128906, 9.095536231994629, -4.017789840698242, -0.24284543097019196, -0.009285160340368748, -8.654423713684082, 0.9999542236328125, 
593, 2241111477, -97.19015502929688, -64.96900177001953, -146.55743408203125, 9.079632759094238, -4.031203746795654, -0.28330284357070923, 0.004175120964646339, -8.342620849609375, 0.9546170234680176, 
594, 2241119810, -97.34449768066406, -64.96912384033203, -146.39016723632812, 9.078930854797363, -4.034083366394043, -0.2783186435699463, 0.08429644256830215, -8.08873176574707, 1.0556138753890991, 
595, 2241128143, -97.4862060546875, -64.95982360839844, -146.23513793945312, 9.077271461486816, -4.025134086608887, -0.26431113481521606, 0.09482389688491821, -7.794732570648193, 1.090705394744873, 
596, 2241136476, -97.63385009765625, -64.96044158935547, -146.0731201171875, 9.082588195800781, -4.036911487579346, -0.2615138590335846, 0.26354488730430603, -7.81076717376709, 0.9846625924110413, 
597, 2241144809, -97.77104187011719, -64.95159149169922, -145.92098999023438, 9.095932960510254, -4.010280609130859, -0.31202834844589233, 0.31566986441612244, -7.646298885345459, 1.0227766036987305, 
598, 2241153142, -97.90926361083984, -64.95259857177734, -145.7664794921875, 9.078075408935547, -4.022358417510986, -0.2889516353607178, 0.47591254115104675, -7.403371810913086, 0.9523628354072571, 
599, 2241161475, -98.03826141357422, -64.94445037841797, -145.62118530273438, 9.064785957336426, -4.00601053237915, -0.2718794047832489, 0.555239737033844, -7.291719436645508, 0.9516968131065369, 
600, 2241169808, -98.16607666015625, -64.94451141357422, -145.47572326660156, 9.065682411193848, -4.00452184677124, -0.2837892174720764, 0.6373845934867859, -6.935131072998047, 1.0889378786087036, 
601, 2241178141, -98.2853012084961, -64.93550109863281, -145.3384552001953, 9.061394691467285, -4.011932849884033, -0.2731195390224457, 0.8514171242713928, -6.9043426513671875, 1.0821757316589355, 
602, 2241186474, -98.40365600585938, -64.93550109863281, -145.20175170898438, 9.066753387451172, -4.0218000411987305, -0.28235867619514465, 0.8900690078735352, -6.551596164703369, 1.1188040971755981, 
603, 2241194807, -98.51336669921875, -64.92742156982422, -145.07493591308594, 9.070910453796387, -4.006101608276367, -0.2958744466304779, 0.8588452935218811, -6.363433837890625, 1.0212651491165161, 
604, 2241203140, -98.6235122680664, -64.92896270751953, -144.94772338867188, 9.06025505065918, -4.007378101348877, -0.27076366543769836, 0.9796422123908997, -6.135929584503174, 0.9687305688858032, 
605, 2241211473, -98.72343444824219, -64.92101287841797, -144.8290252685547, 9.057266235351562, -3.9975264072418213, -0.2653203010559082, 1.1537164449691772, -5.957705020904541, 1.0457781553268433, 
606, 2241219806, -98.82317352294922, -64.92218780517578, -144.71096801757812, 9.083498001098633, -3.9833595752716064, -0.2907333970069885, 1.1956212520599365, -5.691418647766113, 1.0564334392547607, 
