sep=,
PacketCounter,SampleTimeFine,Euler_X,Euler_Y,Euler_Z,Acc_X,Acc_Y,Acc_Z,Gyr_X,Gyr_Y,Gyr_Z,
0, 245160389, -159.95550537109375, -80.525390625, -155.6578826904297, 0, 0, 0, 0, 0, 0, 
1, 245168722, -160.3036346435547, -80.53448486328125, -155.2891082763672, 9.752981185913086, -0.5780459046363831, -1.5056740045547485, 1.8800721168518066, -1.4458212852478027, -7.219398021697998, 
2, 245177055, -160.5572509765625, -80.54156494140625, -155.02639770507812, 9.764328002929688, -0.5767980217933655, -1.502085566520691, 1.779510498046875, -1.469821572303772, -8.05536937713623, 
3, 245185388, -160.98648071289062, -80.5545654296875, -154.57662963867188, 9.75947380065918, -0.6015443205833435, -1.4966204166412354, 1.7328927516937256, -1.4430549144744873, -8.88486099243164, 
4, 245193721, -161.11524963378906, -80.58213806152344, -154.44236755371094, 9.75439739227295, -0.5816676616668701, -1.51125967502594, 1.6351487636566162, -1.3493068218231201, -9.642274856567383, 
5, 245202054, -161.6259765625, -80.59912109375, -153.91171264648438, 9.777125358581543, -0.5950524210929871, -1.5276780128479004, 1.5344594717025757, -1.3902641534805298, -10.519229888916016, 
6, 245210387, -161.80389404296875, -80.61917114257812, -153.70587158203125, 9.785210609436035, -0.5999963283538818, -1.562442660331726, 1.3909426927566528, -1.3757919073104858, -11.29290771484375, 
7, 245218720, -162.3934326171875, -80.64045715332031, -153.09706115722656, 9.799016952514648, -0.6015156507492065, -1.5477017164230347, 1.3382796049118042, -1.2265889644622803, -12.104569435119629, 
8, 245227053, -162.632080078125, -80.64529418945312, -152.8440399169922, 9.783487319946289, -0.5915644764900208, -1.5273406505584717, 1.2707608938217163, -1.3101683855056763, -12.789676666259766, 
9, 245235386, -163.29432678222656, -80.66925811767578, -152.16348266601562, 9.780806541442871, -0.5805454254150391, -1.5197932720184326, 1.1111071109771729, -1.138962745666504, -13.517760276794434, 
10, 245243719, -163.60650634765625, -80.68000030517578, -151.8563690185547, 9.782505989074707, -0.6029873490333557, -1.5066308975219727, 1.071968674659729, -1.2865774631500244, -14.251965522766113, 
11, 245252052, -164.34146118164062, -80.70462036132812, -151.10401916503906, 9.803937911987305, -0.6023616790771484, -1.5375765562057495, 0.9077303409576416, -1.1795357465744019, -14.855364799499512, 
12, 245260385, -164.6888885498047, -80.71898651123047, -150.74583435058594, 9.81301212310791, -0.6119868159294128, -1.5372108221054077, 0.9489691257476807, -1.1410375833511353, -15.481987953186035, 
13, 245268718, -165.49009704589844, -80.74462890625, -149.9263153076172, 9.823441505432129, -0.5968971848487854, -1.54789137840271, 0.9017109274864197, -1.1166784763336182, -16.092018127441406, 
14, 245277051, -165.88644409179688, -80.7577133178711, -149.52096557617188, 9.814371109008789, -0.6012341380119324, -1.5437642335891724, 0.8121121525764465, -1.1059714555740356, -16.65609359741211, 
15, 245285384, -166.75344848632812, -80.7823715209961, -148.63693237304688, 9.820077896118164, -0.6084024906158447, -1.5634946823120117, 0.6659063100814819, -1.1601970195770264, -17.231468200683594, 
16, 245293717, -167.1930694580078, -80.79192352294922, -148.18446350097656, 9.837512016296387, -0.6232324242591858, -1.4972671270370483, 0.6334530115127563, -1.2238740921020508, -17.59718894958496, 
17, 245302050, -168.10787963867188, -80.8158950805664, -147.25289916992188, 9.84758472442627, -0.6397221684455872, -1.511474609375, 0.5716971158981323, -1.0194469690322876, -18.066852569580078, 
18, 245310383, -168.5625, -80.83170318603516, -146.7852020263672, 9.84597396850586, -0.6322007775306702, -1.5364598035812378, 0.5692893266677856, -0.8518784642219543, -18.571043014526367, 
19, 245318716, -169.5253143310547, -80.85445404052734, -145.80545043945312, 9.849770545959473, -0.6182823777198792, -1.5449202060699463, 0.5314828157424927, -0.8780563473701477, -18.889480590820312, 
20, 245327049, -170.01246643066406, -80.8675308227539, -145.30575561523438, 9.857136726379395, -0.6418976187705994, -1.5404709577560425, 0.46004462242126465, -0.9660668969154358, -19.394670486450195, 
21, 245335382, -171.025634765625, -80.88703918457031, -144.27650451660156, 9.848511695861816, -0.6290056109428406, -1.5178686380386353, 0.36972880363464355, -0.9131733775138855, -19.70511245727539, 
22, 245343715, -171.52108764648438, -80.8988265991211, -143.76284790039062, 9.868091583251953, -0.6329342722892761, -1.5300484895706177, 0.4109165072441101, -0.9306166768074036, -19.832107543945312, 
23, 245352048, -172.56027221679688, -80.91487884521484, -142.70693969726562, 9.866196632385254, -0.6430209279060364, -1.529254674911499, 0.41045549511909485, -0.8706794381141663, -20.10026741027832, 
24, 245360381, -173.0725860595703, -80.92535400390625, -142.17861938476562, 9.857112884521484, -0.6531804203987122, -1.537540316581726, 0.35902199149131775, -0.8711915612220764, -20.371519088745117, 
25, 245368714, -174.14154052734375, -80.93824005126953, -141.09384155273438, 9.890376091003418, -0.6625303030014038, -1.5404497385025024, 0.2700637876987457, -0.7545700073242188, -20.564319610595703, 
26, 245377047, -174.65086364746094, -80.94611358642578, -140.5756378173828, 9.89382266998291, -0.662371814250946, -1.5579203367233276, 0.35182446241378784, -0.8572574853897095, -20.596311569213867, 
27, 245385380, -175.73040771484375, -80.95430755615234, -139.47914123535156, 9.904899597167969, -0.6593660116195679, -1.5076611042022705, 0.3975971043109894, -0.7528795003890991, -20.712522506713867, 
28, 245393713, -176.23699951171875, -80.96049499511719, -138.95591735839844, 9.91529369354248, -0.6766362190246582, -1.5140231847763062, 0.339862585067749, -0.7976787090301514, -20.77883529663086, 
29, 245402046, -177.31591796875, -80.96432495117188, -137.8595428466797, 9.880788803100586, -0.6807271242141724, -1.5384825468063354, 0.4569196403026581, -0.7065688967704773, -20.665674209594727, 
30, 245410379, -177.79881286621094, -80.96939086914062, -137.3562774658203, 9.886735916137695, -0.7059095501899719, -1.5135053396224976, 0.4313054382801056, -0.6712980270385742, -20.609397888183594, 
31, 245418712, -178.86996459960938, -80.96961212158203, -136.26828002929688, 9.899977684020996, -0.7048546075820923, -1.5234166383743286, 0.4049484431743622, -0.5687131285667419, -20.492652893066406, 
32, 245427045, -179.33399963378906, -80.97306823730469, -135.78042602539062, 9.881065368652344, -0.6938584446907043, -1.5624665021896362, 0.38115277886390686, -0.6338245272636414, -20.549335479736328, 
33, 245435378, 179.6035614013672, -80.96871948242188, -134.70069885253906, 9.892395973205566, -0.711365818977356, -1.5447653532028198, 0.4616839289665222, -0.5792660713195801, -20.340909957885742, 
34, 245443711, 179.1803741455078, -80.97022247314453, -134.2607879638672, 9.903324127197266, -0.7240893244743347, -1.548972487449646, 0.5329427719116211, -0.5311113595962524, -20.009462356567383, 
35, 245452044, 178.14739990234375, -80.96199798583984, -133.21014404296875, 9.907988548278809, -0.7486057281494141, -1.5640186071395874, 0.551487386226654, -0.5266031622886658, -19.82534408569336, 
36, 245460377, 177.7646942138672, -80.96038818359375, -132.81005859375, 9.884955406188965, -0.7483353614807129, -1.5553146600723267, 0.6117578148841858, -0.6429175138473511, -19.527790069580078, 
37, 245468710, 176.77381896972656, -80.94746398925781, -131.8021240234375, 9.895465850830078, -0.7529250383377075, -1.5450384616851807, 0.5441873669624329, -0.639843761920929, -19.084095001220703, 
38, 245477043, 176.4445343017578, -80.94461822509766, -131.4485321044922, 9.901813507080078, -0.7326213717460632, -1.5275486707687378, 0.6935440897941589, -0.6171239614486694, -18.764225006103516, 
39, 245485376, 175.50070190429688, -80.92814636230469, -130.48704528808594, 9.892860412597656, -0.7499552369117737, -1.5756713151931763, 0.6775351166725159, -0.693659245967865, -18.285879135131836, 
40, 245493709, 175.2241668701172, -80.924072265625, -130.18740844726562, 9.903581619262695, -0.7580875754356384, -1.5818833112716675, 0.7702842950820923, -0.651805579662323, -17.918210983276367, 
41, 245502042, 174.34007263183594, -80.9045181274414, -129.2849578857422, 9.868536949157715, -0.770021915435791, -1.6043304204940796, 0.8420810699462891, -0.7921972870826721, -17.262540817260742, 
42, 245510375, 174.1334686279297, -80.8989028930664, -129.0548553466797, 9.912206649780273, -0.774245023727417, -1.5669342279434204, 0.9190515875816345, -0.724242627620697, -16.76346778869629, 
43, 245518708, 173.305908203125, -80.8779067993164, -128.2090606689453, 9.89742660522461, -0.7690532207489014, -1.57132089138031, 0.9040161967277527, -0.7480894327163696, -16.27354621887207, 
44, 245527041, 173.1674041748047, -80.87232208251953, -128.04696655273438, 9.876208305358887, -0.7728432416915894, -1.564611554145813, 1.0864663124084473, -0.7374083399772644, -15.585675239562988, 
45, 245535374, 172.41639709472656, -80.85037231445312, -127.27676391601562, 9.87667465209961, -0.7918385863304138, -1.587246298789978, 1.121225118637085, -0.7873818278312683, -14.918323516845703, 
46, 245543707, 172.34666442871094, -80.84410095214844, -127.17922973632812, 9.861831665039062, -0.787574291229248, -1.5587913990020752, 1.2688907384872437, -0.8936551213264465, -14.374249458312988, 
47, 245552040, 171.66360473632812, -80.82168579101562, -126.4769058227539, 9.860466957092285, -0.775293231010437, -1.5579575300216675, 1.231750249862671, -0.8046969771385193, -13.698699951171875, 
48, 245560373, 171.6681671142578, -80.816162109375, -126.4538803100586, 9.887231826782227, -0.7723815441131592, -1.6030713319778442, 1.397141456604004, -0.9729055762290955, -12.970359802246094, 
49, 245568706, 171.06790161132812, -80.79271697998047, -125.8324966430664, 9.878215789794922, -0.7885938882827759, -1.5508739948272705, 1.5707802772521973, -1.0007482767105103, -12.235818862915039, 
50, 245577039, 171.15113830566406, -80.7898178100586, -125.87806701660156, 9.878341674804688, -0.7941778898239136, -1.5628117322921753, 1.6713416576385498, -0.8468322157859802, -11.421207427978516, 
51, 245585372, 170.635986328125, -80.76679992675781, -125.34169006347656, 9.867413520812988, -0.8025388717651367, -1.5838658809661865, 1.7063051462173462, -1.0978262424468994, -10.6571626663208, 
52, 245593705, 170.80609130859375, -80.76426696777344, -125.4827651977539, 9.862469673156738, -0.7978960871696472, -1.5539698600769043, 1.7953401803970337, -1.0686002969741821, -9.715300559997559, 
53, 245602038, 170.37484741210938, -80.74241638183594, -125.02980041503906, 9.877102851867676, -0.7923693656921387, -1.564542531967163, 1.8956714868545532, -1.1597357988357544, -9.086625099182129, 
54, 245610371, 170.622802734375, -80.74198913574219, -125.24559020996094, 9.866991996765137, -0.7966408133506775, -1.5656931400299072, 2.0114474296569824, -1.082329511642456, -8.116996765136719, 
55, 245618704, 170.2892608642578, -80.72154998779297, -124.88964080810547, 9.873079299926758, -0.8005399703979492, -1.5706616640090942, 2.127915620803833, -1.2760756015777588, -7.234715938568115, 
56, 245627037, 170.61904907226562, -80.72284698486328, -125.18873596191406, 9.848158836364746, -0.7797496318817139, -1.56290602684021, 2.220024347305298, -1.146262764930725, -6.414573669433594, 
57, 245635370, 170.37698364257812, -80.70466613769531, -124.92326354980469, 9.86806583404541, -0.8076153993606567, -1.5715864896774292, 2.3795244693756104, -1.3102707862854004, -5.479935646057129, 
58, 245643703, 170.79527282714844, -80.70568084716797, -125.30200958251953, 9.844822883605957, -0.8170289993286133, -1.5471925735473633, 2.4476325511932373, -1.4342691898345947, -4.581080913543701, 
59, 245652036, 170.64559936523438, -80.6897964477539, -125.1282730102539, 9.845542907714844, -0.8151178359985352, -1.5433980226516724, 2.600395679473877, -1.3455158472061157, -3.6869900226593018, 
60, 245660369, 171.15228271484375, -80.6917495727539, -125.59654998779297, 9.855881690979004, -0.8190706372261047, -1.5451284646987915, 2.7187843322753906, -1.5739178657531738, -2.725226640701294, 
61, 245668702, 171.1001434326172, -80.67708587646484, -125.51957702636719, 9.855509757995605, -0.827643871307373, -1.5412449836730957, 2.848853349685669, -1.5107786655426025, -1.8095173835754395, 
62, 245677035, 171.69094848632812, -80.68109893798828, -126.06684112548828, 9.867715835571289, -0.8377147912979126, -1.5651178359985352, 2.9916532039642334, -1.538672685623169, -0.9113799929618835, 
63, 245685368, 171.7413330078125, -80.66834259033203, -126.09230041503906, 9.867197036743164, -0.8359962701797485, -1.5633888244628906, 3.020366907119751, -1.5875191688537598, 0.20426073670387268, 
64, 245693701, 172.4241943359375, -80.67310333251953, -126.73059844970703, 9.864998817443848, -0.8355081081390381, -1.5376946926116943, 3.1303794384002686, -1.5664640665054321, 1.0759899616241455, 
65, 245702034, 172.5711212158203, -80.66285705566406, -126.85131072998047, 9.861685752868652, -0.831525444984436, -1.536035180091858, 3.3270459175109863, -1.5253533124923706, 2.0948727130889893, 
66, 245710367, 173.3430633544922, -80.66769409179688, -127.58163452148438, 9.845365524291992, -0.8287258148193359, -1.530511736869812, 3.3904411792755127, -1.6119295358657837, 3.0052285194396973, 
67, 245718700, 173.5886688232422, -80.65782165527344, -127.79995727539062, 9.838135719299316, -0.8260924816131592, -1.5087823867797852, 3.6007080078125, -1.6730962991714478, 4.011483669281006, 
68, 245727033, 174.44773864746094, -80.66136169433594, -128.61480712890625, 9.846123695373535, -0.8214632868766785, -1.5658971071243286, 3.6797282695770264, -1.7205337285995483, 4.911541938781738, 
69, 245735366, 174.78738403320312, -80.65153503417969, -128.9271240234375, 9.859906196594238, -0.8171125650405884, -1.573820948600769, 3.765868902206421, -1.7439451217651367, 5.860626220703125, 
70, 245743699, 175.7294921875, -80.65279388427734, -129.8225555419922, 9.84707260131836, -0.8208985328674316, -1.561186671257019, 3.7905611991882324, -1.7827764749526978, 6.795290470123291, 
71, 245752032, 176.1599884033203, -80.64287567138672, -130.22515869140625, 9.863326072692871, -0.7968810200691223, -1.5641133785247803, 3.969630479812622, -1.7495036125183105, 7.656057357788086, 
72, 245760365, 177.18507385253906, -80.64094543457031, -131.2012939453125, 9.861239433288574, -0.8188297748565674, -1.5733293294906616, 4.16355562210083, -1.827165961265564, 8.675247192382812, 
73, 245768698, 177.70567321777344, -80.62946319580078, -131.6937255859375, 9.87094497680664, -0.8076590895652771, -1.6034812927246094, 4.147674560546875, -1.806854009628296, 9.445135116577148, 
74, 245777031, 178.80279541015625, -80.62342071533203, -132.74276733398438, 9.84045696258545, -0.7842186689376831, -1.6059646606445312, 4.34918212890625, -1.8251168727874756, 10.405976295471191, 
75, 245785364, 179.41001892089844, -80.60851287841797, -133.32125854492188, 9.84433650970459, -0.7954921722412109, -1.5643842220306396, 4.358352184295654, -1.963689923286438, 11.183496475219727, 
76, 245793697, -179.42965698242188, -80.59688568115234, -134.4317626953125, 9.86438274383545, -0.8104714751243591, -1.5633124113082886, 4.5249223709106445, -1.8748598098754883, 12.036528587341309, 
77, 245802030, -178.74114990234375, -80.57892608642578, -135.08995056152344, 9.882390975952148, -0.7956151962280273, -1.5646429061889648, 4.668847560882568, -1.9569790363311768, 12.836997032165527, 
78, 245810363, -177.52149963378906, -80.56004333496094, -136.25885009765625, 9.872323989868164, -0.7799667119979858, -1.5749084949493408, 4.747893333435059, -1.9968090057373047, 13.639056205749512, 
79, 245818696, -176.76434326171875, -80.53722381591797, -136.9860076904297, 9.883479118347168, -0.7820572257041931, -1.537537932395935, 4.7578582763671875, -2.01873517036438, 14.326364517211914, 
80, 245827029, -175.49732971191406, -80.5111312866211, -138.19822692871094, 9.867419242858887, -0.7822784185409546, -1.560302495956421, 4.893817901611328, -1.9894580841064453, 15.112208366394043, 
81, 245835362, -174.6729736328125, -80.48291015625, -138.99172973632812, 9.86424446105957, -0.8008316159248352, -1.5829015970230103, 4.968150615692139, -2.03825306892395, 15.827025413513184, 
82, 245843695, -173.3641815185547, -80.447509765625, -140.24620056152344, 9.878812789916992, -0.7914601564407349, -1.5643409490585327, 5.075014114379883, -2.106131076812744, 16.56794548034668, 
83, 245852028, -172.48081970214844, -80.41249084472656, -141.09823608398438, 9.89429759979248, -0.778121829032898, -1.5679794549942017, 5.149857997894287, -2.0745229721069336, 17.25035858154297, 
84, 245860361, -171.146484375, -80.36763000488281, -142.3778533935547, 9.878544807434082, -0.7796762585639954, -1.5488784313201904, 5.282924652099609, -2.167656183242798, 17.80559730529785, 
85, 245868694, -170.21905517578125, -80.324462890625, -143.27357482910156, 9.887612342834473, -0.7597959041595459, -1.5583252906799316, 5.286049842834473, -2.2035934925079346, 18.484352111816406, 
86, 245877027, -168.87168884277344, -80.27025604248047, -144.56390380859375, 9.897472381591797, -0.7786518335342407, -1.5356662273406982, 5.371165752410889, -2.148035764694214, 18.916488647460938, 
87, 245885360, -167.91114807128906, -80.22000885009766, -145.49205017089844, 9.897407531738281, -0.7596904635429382, -1.5431424379348755, 5.4543352127075195, -2.1128931045532227, 19.54744529724121, 
88, 245893693, -166.55899047851562, -80.15518188476562, -146.78916931152344, 9.906511306762695, -0.7546398639678955, -1.528537392616272, 5.504129409790039, -2.2378652095794678, 19.9821720123291, 
89, 245902026, -165.5736541748047, -80.09619140625, -147.74209594726562, 9.907057762145996, -0.7246299982070923, -1.553037166595459, 5.5468292236328125, -2.142529249191284, 20.576374053955078, 
90, 245910359, -164.2294921875, -80.02192687988281, -149.02987670898438, 9.918691635131836, -0.7528886198997498, -1.559581995010376, 5.573416709899902, -2.18323016166687, 20.882102966308594, 
91, 245918692, -163.23681640625, -79.95411682128906, -149.98841857910156, 9.919303894042969, -0.7361632585525513, -1.5544995069503784, 5.796311855316162, -2.218526601791382, 21.312191009521484, 
92, 245927025, -161.91073608398438, -79.87078857421875, -151.25856018066406, 9.910783767700195, -0.7295283079147339, -1.5874054431915283, 5.738064765930176, -2.0705275535583496, 21.62404441833496, 
93, 245935358, -160.9215850830078, -79.79656982421875, -152.21417236328125, 9.892043113708496, -0.7303397059440613, -1.5336230993270874, 5.774360179901123, -2.0019326210021973, 21.85252571105957, 
94, 245943691, -159.62648010253906, -79.70392608642578, -153.45126342773438, 9.91241455078125, -0.7086761593818665, -1.5473402738571167, 5.793981075286865, -2.0599236488342285, 22.20456886291504, 
95, 245952024, -158.64759826660156, -79.62149810791016, -154.3960723876953, 9.905815124511719, -0.7323161959648132, -1.5242488384246826, 5.872924327850342, -2.0041611194610596, 22.354001998901367, 
96, 245960357, -157.38812255859375, -79.52120208740234, -155.5991668701172, 9.90713119506836, -0.7260460257530212, -1.5444097518920898, 5.831402778625488, -1.915177345275879, 22.686267852783203, 
97, 245968690, -156.4296417236328, -79.43141174316406, -156.52349853515625, 9.908061027526855, -0.7158605456352234, -1.49689781665802, 5.902713298797607, -1.9708367586135864, 22.67525291442871, 
98, 245977023, -155.22531127929688, -79.32410430908203, -157.67005920410156, 9.897811889648438, -0.6878731846809387, -1.4956568479537964, 5.80064058303833, -1.8988094329833984, 22.783729553222656, 
99, 245985356, -154.29161071777344, -79.22926330566406, -158.57115173339844, 9.873677253723145, -0.697162389755249, -1.4889631271362305, 5.73627233505249, -1.7226605415344238, 22.860471725463867, 
100, 245993689, -153.13446044921875, -79.11725616455078, -159.66868591308594, 9.887419700622559, -0.6743983030319214, -1.515268325805664, 5.946821689605713, -1.6357516050338745, 22.916030883789062, 
101, 246002022, -152.23040771484375, -79.01657104492188, -160.53797912597656, 9.92021656036377, -0.6787989735603333, -1.504312515258789, 5.99592399597168, -1.661032795906067, 22.92302131652832, 
102, 246010355, -151.13514709472656, -78.9005126953125, -161.57473754882812, 9.900182723999023, -0.6629557609558105, -1.5185809135437012, 5.899588584899902, -1.5310149192810059, 22.754966735839844, 
103, 246018688, -150.27476501464844, -78.79619598388672, -162.4012451171875, 9.874794960021973, -0.6454181671142578, -1.5327616930007935, 5.866444110870361, -1.5376231670379639, 22.64794921875, 
104, 246027021, -149.24649047851562, -78.67594146728516, -163.37110900878906, 9.872842788696289, -0.6399515271186829, -1.5213829278945923, 5.820287227630615, -1.5801173448562622, 22.484506607055664, 
105, 246035354, -148.43572998046875, -78.56901550292969, -164.14822387695312, 9.856035232543945, -0.6394538283348083, -1.5314165353775024, 5.797003269195557, -1.4726141691207886, 22.171831130981445, 
106, 246043687, -147.47067260742188, -78.44744110107422, -165.0536651611328, 9.87471866607666, -0.6323121786117554, -1.5131536722183228, 5.800845146179199, -1.42717444896698, 22.08978843688965, 
107, 246052020, -146.7032470703125, -78.33882141113281, -165.78709411621094, 9.861352920532227, -0.6441650390625, -1.4895538091659546, 5.798949718475342, -1.3351168632507324, 21.73625946044922, 
108, 246060353, -145.8103485107422, -78.21753692626953, -166.62205505371094, 9.859045028686523, -0.6274471879005432, -1.5059099197387695, 5.697005271911621, -1.3564536571502686, 21.373361587524414, 
109, 246068686, -145.09288024902344, -78.10830688476562, -167.30638122558594, 9.851347923278809, -0.6419636011123657, -1.4877227544784546, 5.632226467132568, -1.262244462966919, 21.094470977783203, 
110, 246077019, -144.26431274414062, -77.9880599975586, -168.07882690429688, 9.859025955200195, -0.5979353189468384, -1.5348329544067383, 5.513453960418701, -1.2523573637008667, 20.739511489868164, 
111, 246085352, -143.59881591796875, -77.88029479980469, -168.7114715576172, 9.83834457397461, -0.619862973690033, -1.539636492729187, 5.5306782722473145, -1.1266679763793945, 20.22113800048828, 
112, 246093685, -142.840087890625, -77.76348114013672, -169.41146850585938, 9.825130462646484, -0.6313022375106812, -1.5339986085891724, 5.544997692108154, -1.1593775749206543, 19.739309310913086, 
113, 246102018, -142.22804260253906, -77.65800476074219, -169.9902801513672, 9.833928108215332, -0.6153203248977661, -1.5173369646072388, 5.478976249694824, -1.074286937713623, 19.21312713623047, 
114, 246110351, -141.5364990234375, -77.54522705078125, -170.62525939941406, 9.813326835632324, -0.6032455563545227, -1.5143404006958008, 5.283079147338867, -1.093805193901062, 18.737194061279297, 
115, 246118684, -140.9755096435547, -77.44261932373047, -171.1544952392578, 9.814109802246094, -0.6066109538078308, -1.54414701461792, 5.21707010269165, -1.0139909982681274, 18.20305633544922, 
116, 246127017, -140.3521728515625, -77.33458709716797, -171.72303771972656, 9.82767391204834, -0.6040855646133423, -1.5122541189193726, 5.14090633392334, -1.1494135856628418, 17.59071159362793, 
117, 246135350, -139.84698486328125, -77.23615264892578, -172.19590759277344, 9.809751510620117, -0.590609610080719, -1.4965565204620361, 5.166532516479492, -1.0694713592529297, 16.92577362060547, 
118, 246143683, -139.2843780517578, -77.13529205322266, -172.70364379882812, 9.800765991210938, -0.5988372564315796, -1.496404767036438, 5.036003589630127, -1.0091500282287598, 16.348739624023438, 
119, 246152016, -138.83279418945312, -77.04232025146484, -173.12332153320312, 9.797891616821289, -0.5994459986686707, -1.5426526069641113, 4.991332054138184, -1.0782313346862793, 15.583587646484375, 
120, 246160349, -138.3332977294922, -76.94952392578125, -173.56942749023438, 9.793664932250977, -0.5967400074005127, -1.5118930339813232, 4.822149753570557, -0.9360468983650208, 14.937803268432617, 
121, 246168682, -137.92868041992188, -76.86355590820312, -173.94287109375, 9.782565116882324, -0.5830338597297668, -1.5364031791687012, 4.794229984283447, -0.9290798306465149, 14.21153736114502, 
122, 246177015, -137.49087524414062, -76.77855682373047, -174.3277130126953, 9.76070499420166, -0.5718780159950256, -1.5568536520004272, 4.651788711547852, -1.0174742937088013, 13.533679008483887, 
123, 246185348, -137.13848876953125, -76.70075988769531, -174.64895629882812, 9.775357246398926, -0.5854191184043884, -1.5145647525787354, 4.647370338439941, -0.8921310305595398, 12.595571517944336, 
124, 246193681, -136.76220703125, -76.62567901611328, -174.97096252441406, 9.764893531799316, -0.5877207517623901, -1.5234829187393188, 4.556363105773926, -1.0242879390716553, 11.888772964477539, 
125, 246202014, -136.45936584472656, -76.55673217773438, -175.24395751953125, 9.758288383483887, -0.5761690139770508, -1.5350242853164673, 4.352602481842041, -0.81906658411026, 10.969324111938477, 
126, 246210347, -136.1387481689453, -76.49244689941406, -175.5125274658203, 9.745796203613281, -0.6034033298492432, -1.5440906286239624, 4.297672271728516, -0.9234700798988342, 10.276009559631348, 
127, 246218680, -135.8868408203125, -76.43153381347656, -175.7346649169922, 9.762804985046387, -0.5712350010871887, -1.5170823335647583, 4.182088375091553, -0.9574474692344666, 9.337285995483398, 
128, 246227013, -135.62542724609375, -76.37870025634766, -175.94586181640625, 9.732213020324707, -0.576023519039154, -1.5341849327087402, 4.058243274688721, -0.9285290241241455, 8.480489730834961, 
129, 246235346, -135.4159698486328, -76.32796478271484, -176.12640380859375, 9.736756324768066, -0.5849055051803589, -1.5408991575241089, 3.9557857513427734, -0.793336808681488, 7.679429531097412, 
130, 246243679, -135.20782470703125, -76.28739929199219, -176.28567504882812, 9.728705406188965, -0.5906342267990112, -1.5418453216552734, 3.821324348449707, -0.8316943049430847, 6.714837074279785, 
131, 246252012, -135.05184936523438, -76.24702453613281, -176.41384887695312, 9.726600646972656, -0.5867862701416016, -1.5379313230514526, 3.6426384449005127, -0.8871489763259888, 5.77271842956543, 
132, 246260345, -134.90179443359375, -76.21823120117188, -176.51470947265625, 9.734644889831543, -0.5912539958953857, -1.5560071468353271, 3.59210205078125, -0.9322299957275391, 4.846482276916504, 
133, 246268678, -134.79408264160156, -76.18821716308594, -176.59521484375, 9.742828369140625, -0.5586366057395935, -1.5394428968429565, 3.4062063694000244, -0.9406442642211914, 3.950688600540161, 
134, 246277011, -134.6944122314453, -76.1715316772461, -176.6480712890625, 9.71782398223877, -0.5618184804916382, -1.5655630826950073, 3.3640971183776855, -0.8810657262802124, 3.083467483520508, 
135, 246285344, -134.63351440429688, -76.15209197998047, -176.68211364746094, 9.721723556518555, -0.5808061957359314, -1.5328474044799805, 3.20052433013916, -0.9807305335998535, 2.119577646255493, 
136, 246293677, -134.58839416503906, -76.14683532714844, -176.68222045898438, 9.719484329223633, -0.5663448572158813, -1.5496129989624023, 2.9469306468963623, -0.976363480091095, 1.3097455501556396, 
137, 246302010, -134.5723114013672, -76.13867950439453, -176.6721954345703, 9.741961479187012, -0.5619123578071594, -1.5299042463302612, 2.9510927200317383, -0.9264668226242065, 0.2697691023349762, 
138, 246310343, -134.5785369873047, -76.14627838134766, -176.62081909179688, 9.722698211669922, -0.5720592737197876, -1.5481319427490234, 2.869959831237793, -0.9525166153907776, -0.5975289344787598, 
139, 246318676, -134.61195373535156, -76.14893341064453, -176.56207275390625, 9.737991333007812, -0.5664200186729431, -1.5279834270477295, 2.684141159057617, -1.015540361404419, -1.6310760974884033, 
140, 246327009, -134.67562866210938, -76.16864776611328, -176.4571533203125, 9.724958419799805, -0.5644140839576721, -1.5341846942901611, 2.516803503036499, -1.0682799816131592, -2.5339009761810303, 
141, 246335342, -134.75570678710938, -76.18143463134766, -176.35252380371094, 9.738280296325684, -0.5739886164665222, -1.5094531774520874, 2.433685541152954, -1.0921013355255127, -3.4176692962646484, 
142, 246343675, -134.8696746826172, -76.21244049072266, -176.1966094970703, 9.726386070251465, -0.5970848202705383, -1.5214853286743164, 2.3555874824523926, -1.114232063293457, -4.295007228851318, 
143, 246352008, -134.98858642578125, -76.2354736328125, -176.05368041992188, 9.748018264770508, -0.562093198299408, -1.560288906097412, 2.233433246612549, -0.9797573685646057, -5.053598880767822, 
144, 246360341, -135.15040588378906, -76.2779312133789, -175.853515625, 9.740466117858887, -0.5839759707450867, -1.5556977987289429, 2.0129966735839844, -1.0385931730270386, -5.981550693511963, 
145, 246368674, -135.32424926757812, -76.31085968017578, -175.6566619873047, 9.746655464172363, -0.5883024334907532, -1.5363019704818726, 1.9319794178009033, -1.1827501058578491, -6.961475849151611, 
146, 246377007, -135.53970336914062, -76.36363220214844, -175.40182495117188, 9.740653991699219, -0.5781729221343994, -1.5651272535324097, 1.9115523099899292, -1.1506683826446533, -7.744644641876221, 
147, 246385340, -135.75486755371094, -76.40625, -175.1631317138672, 9.754456520080566, -0.5751622915267944, -1.5444262027740479, 1.8573395013809204, -1.1026544570922852, -8.598353385925293, 
148, 246393673, -136.02452087402344, -76.46920013427734, -174.85618591308594, 9.745380401611328, -0.5916730761528015, -1.5437183380126953, 1.6000316143035889, -1.207275629043579, -9.450243949890137, 
149, 246402006, -136.289794921875, -76.5212631225586, -174.56900024414062, 9.751605033874512, -0.588463544845581, -1.535542607307434, 1.512815237045288, -1.1159354448318481, -10.327789306640625, 
150, 246410339, -136.60980224609375, -76.5933609008789, -174.21234130859375, 9.779043197631836, -0.5791672468185425, -1.5559589862823486, 1.5629807710647583, -1.2286254167556763, -11.043387413024902, 
151, 246418672, -136.9223175048828, -76.65209197998047, -173.87843322753906, 9.76346206665039, -0.6001754403114319, -1.5362622737884521, 1.3164950609207153, -1.262922763824463, -11.771394729614258, 
152, 246427005, -137.29397583007812, -76.7331314086914, -173.47152709960938, 9.776378631591797, -0.5844923853874207, -1.5584062337875366, 1.3512535095214844, -1.190613865852356, -12.594560623168945, 
153, 246435338, -137.65505981445312, -76.79890441894531, -173.08892822265625, 9.784989356994629, -0.5835408568382263, -1.5408437252044678, 1.1988999843597412, -1.3404443264007568, -13.262847900390625, 
154, 246443671, -138.07907104492188, -76.88712310791016, -172.6317596435547, 9.789164543151855, -0.599640429019928, -1.5458226203918457, 1.1448285579681396, -1.2257568836212158, -13.999041557312012, 
155, 246452004, -138.4844512939453, -76.95990753173828, -172.20571899414062, 9.804832458496094, -0.6049268245697021, -1.5425986051559448, 0.9889143705368042, -1.2302645444869995, -14.624589920043945, 
156, 246460337, -138.9627685546875, -77.0531234741211, -171.6975555419922, 9.818510055541992, -0.6149805188179016, -1.5463653802871704, 0.8362408876419067, -1.3741528987884521, -15.240498542785645, 
157, 246468670, -139.4137725830078, -77.13089752197266, -171.2264862060547, 9.794594764709473, -0.6009410619735718, -1.5284196138381958, 0.8105625510215759, -1.2417527437210083, -15.83018970489502, 
158, 246477003, -139.9425811767578, -77.22937774658203, -170.6681671142578, 9.808100700378418, -0.614055335521698, -1.5447077751159668, 0.749946653842926, -1.355147123336792, -16.45366859436035, 
159, 246485336, -140.4390411376953, -77.310791015625, -170.15133666992188, 9.83395004272461, -0.6106719970703125, -1.5239617824554443, 0.7444906830787659, -1.3086825609207153, -16.911237716674805, 
160, 246493669, -141.01492309570312, -77.4126205444336, -169.54812622070312, 9.852235794067383, -0.6034947633743286, -1.5656167268753052, 0.6057127714157104, -1.362498164176941, -17.407487869262695, 
161, 246502002, -141.55792236328125, -77.49730682373047, -168.98507690429688, 9.845170974731445, -0.6139323115348816, -1.5518993139266968, 0.6246418356895447, -1.3063008785247803, -17.96436882019043, 
162, 246510335, -142.18716430664062, -77.60073852539062, -168.32925415039062, 9.818388938903809, -0.6199557781219482, -1.5286965370178223, 0.5656009316444397, -1.5263015031814575, -18.379243850708008, 
163, 246518668, -142.77781677246094, -77.68605041503906, -167.71905517578125, 9.835529327392578, -0.626655101776123, -1.5639466047286987, 0.48004934191703796, -1.4847040176391602, -18.81081771850586, 
164, 246527001, -143.45184326171875, -77.79207611083984, -167.02149963378906, 9.848010063171387, -0.6465901136398315, -1.5869542360305786, 0.3795134425163269, -1.3534564971923828, -19.20266342163086, 
165, 246535334, -144.08084106445312, -77.87753295898438, -166.37269592285156, 9.839920043945312, -0.6374378204345703, -1.5579729080200195, 0.45346182584762573, -1.4955388307571411, -19.43068504333496, 
166, 246543667, -144.79934692382812, -77.98138427734375, -165.6317138671875, 9.856566429138184, -0.6214659214019775, -1.5524660348892212, 0.4223147928714752, -1.5620331764221191, -19.71858787536621, 
167, 246552000, -145.46853637695312, -78.06560516357422, -164.9431915283203, 9.857730865478516, -0.6594725251197815, -1.5592347383499146, 0.35010826587677, -1.57729971408844, -19.976396560668945, 
168, 246560333, -146.22850036621094, -78.16742706298828, -164.1624298095703, 9.858731269836426, -0.6453555226325989, -1.588031530380249, 0.39283284544944763, -1.6365196704864502, -20.17405891418457, 
169, 246568666, -146.93247985839844, -78.25064849853516, -163.43896484375, 9.882609367370605, -0.6620230078697205, -1.5694618225097656, 0.33005228638648987, -1.5138529539108276, -20.427051544189453, 
170, 246576999, -147.72817993164062, -78.34976196289062, -162.62420654296875, 9.881669998168945, -0.6517346501350403, -1.6088359355926514, 0.27008941769599915, -1.621612310409546, -20.46055793762207, 
171, 246585332, -148.45938110351562, -78.42949676513672, -161.8731231689453, 9.88558578491211, -0.7029710412025452, -1.5302095413208008, 0.3727256655693054, -1.5419262647628784, -20.569082260131836, 
172, 246593665, -149.28701782226562, -78.52410125732422, -161.0277557373047, 9.923063278198242, -0.6898276805877686, -1.5252379179000854, 0.35026201605796814, -1.7101351022720337, -20.611064910888672, 
173, 246601998, -150.0442657470703, -78.59980773925781, -160.2508087158203, 9.87303352355957, -0.697829008102417, -1.5323392152786255, 0.35086390376091003, -1.5726633071899414, -20.654273986816406, 
174, 246610331, -150.8926239013672, -78.6908950805664, -159.38674926757812, 9.874980926513672, -0.70021653175354, -1.519452452659607, 0.296907514333725, -1.55055832862854, -20.579328536987305, 
175, 246618664, -151.66725158691406, -78.76148223876953, -158.5937042236328, 9.875025749206543, -0.7114271521568298, -1.5224204063415527, 0.21368682384490967, -1.590977668762207, -20.4869384765625, 
176, 246626997, -152.52821350097656, -78.8464584350586, -157.72088623046875, 9.901094436645508, -0.708252489566803, -1.5475151538848877, 0.33714747428894043, -1.5499433279037476, -20.281333923339844, 
177, 246635330, -153.3074188232422, -78.91201782226562, -156.92233276367188, 9.887767791748047, -0.7103573679924011, -1.5083839893341064, 0.36565619707107544, -1.4951547384262085, -20.130311965942383, 
178, 246643663, -154.179931640625, -78.99110412597656, -156.0381317138672, 9.884489059448242, -0.713651180267334, -1.5466583967208862, 0.4948287904262543, -1.5508145093917847, -20.031492233276367, 
179, 246651996, -154.96353149414062, -79.05030059814453, -155.23431396484375, 9.890057563781738, -0.7159074544906616, -1.5449544191360474, 0.5084043145179749, -1.5648252964019775, -19.725194931030273, 
180, 246660329, -155.83340454101562, -79.12225341796875, -154.35333251953125, 9.910266876220703, -0.7386577725410461, -1.579038143157959, 0.45487064123153687, -1.5402872562408447, -19.43050765991211, 
181, 246668662, -156.6146240234375, -79.17422485351562, -153.55215454101562, 9.913798332214355, -0.7450163960456848, -1.5458725690841675, 0.5200075507164001, -1.6881322860717773, -19.154945373535156, 
182, 246676995, -157.4738006591797, -79.2387924194336, -152.6829376220703, 9.892066955566406, -0.7424207329750061, -1.5327472686767578, 0.6067118048667908, -1.5722278356552124, -18.733078002929688, 
183, 246685328, -158.23388671875, -79.28533172607422, -151.90248107910156, 9.91689395904541, -0.7327130436897278, -1.5363036394119263, 0.6644974946975708, -1.4944629669189453, -18.343793869018555, 
184, 246693661, -159.07470703125, -79.34264373779297, -151.05084228515625, 9.89299488067627, -0.7646148800849915, -1.5499283075332642, 0.7076062560081482, -1.585368037223816, -17.92856216430664, 
185, 246701994, -159.80795288085938, -79.38157653808594, -150.2979278564453, 9.879441261291504, -0.7529495358467102, -1.5432978868484497, 0.6574535965919495, -1.587493896484375, -17.319299697875977, 
186, 246710327, -160.61672973632812, -79.43223571777344, -149.47935485839844, 9.876482009887695, -0.7660365700721741, -1.5480576753616333, 0.8127782344818115, -1.4920294284820557, -16.92255973815918, 
187, 246718660, -161.31410217285156, -79.46565246582031, -148.76148986816406, 9.905732154846191, -0.7676212191581726, -1.5528830289840698, 0.8601389527320862, -1.4543253183364868, -16.27700424194336, 
188, 246726993, -162.0803680419922, -79.50879669189453, -147.98760986328125, 9.892942428588867, -0.776296079158783, -1.5631604194641113, 0.8875589370727539, -1.5217419862747192, -15.704447746276855, 
189, 246735326, -162.73410034179688, -79.53512573242188, -147.31356811523438, 9.894444465637207, -0.7877774238586426, -1.544445514678955, 0.9559106230735779, -1.540978193283081, -15.029180526733398, 
190, 246743659, -163.45126342773438, -79.57064819335938, -146.5900421142578, 9.864176750183105, -0.7664659023284912, -1.5529074668884277, 1.024812936782837, -1.631012201309204, -14.41215705871582, 
191, 246751992, -164.05465698242188, -79.59100341796875, -145.9649658203125, 9.883990287780762, -0.7848472595214844, -1.5455405712127686, 1.2382053136825562, -1.5600866079330444, -13.75425910949707, 
192, 246760325, -164.71664428710938, -79.62073516845703, -145.29519653320312, 9.869704246520996, -0.7763333320617676, -1.5445212125778198, 1.3086953163146973, -1.6048599481582642, -13.1222505569458, 
193, 246768658, -165.260009765625, -79.63652038574219, -144.72994995117188, 9.860467910766602, -0.79012131690979, -1.5144649744033813, 1.3910709619522095, -1.454094648361206, -12.325007438659668, 
194, 246776991, -165.85414123535156, -79.66044616699219, -144.12826538085938, 9.86332893371582, -0.7863000631332397, -1.546807885169983, 1.4599987268447876, -1.588210940361023, -11.581144332885742, 
195, 246785324, -166.3317413330078, -79.67023468017578, -143.62884521484375, 9.860867500305176, -0.7890361547470093, -1.540047526359558, 1.5197821855545044, -1.5701525211334229, -10.753854751586914, 
196, 246793657, -166.85595703125, -79.68923950195312, -143.0972442626953, 9.865937232971191, -0.7911939024925232, -1.526342511177063, 1.6560500860214233, -1.5855724811553955, -10.054869651794434, 
197, 246801990, -167.26339721679688, -79.69404602050781, -142.66705322265625, 9.871132850646973, -0.7979369759559631, -1.5583261251449585, 1.7857861518859863, -1.6253771781921387, -9.165875434875488, 
198, 246810323, -167.70574951171875, -79.70771026611328, -142.21774291992188, 9.86329174041748, -0.8019534349441528, -1.5387122631072998, 1.9160856008529663, -1.6544233560562134, -8.305134773254395, 
199, 246818656, -168.0369415283203, -79.70883178710938, -141.86265563964844, 9.848126411437988, -0.8144180774688721, -1.5348132848739624, 2.078557014465332, -1.594947338104248, -7.500796794891357, 
200, 246826989, -168.3944854736328, -79.71885681152344, -141.49647521972656, 9.854174613952637, -0.8255842924118042, -1.50240159034729, 2.1618285179138184, -1.5980976819992065, -6.549559593200684, 
201, 246835322, -168.6424560546875, -79.7169189453125, -141.22457885742188, 9.860158920288086, -0.8254504799842834, -1.5223252773284912, 2.2441275119781494, -1.5220749378204346, -5.6833391189575195, 
202, 246843655, -168.908935546875, -79.72492980957031, -140.94871520996094, 9.859420776367188, -0.8194403052330017, -1.5074479579925537, 2.4370665550231934, -1.3868317604064941, -4.7163496017456055, 
203, 246851988, -169.0689239501953, -79.72003936767578, -140.7635040283203, 9.886826515197754, -0.8252471685409546, -1.5056384801864624, 2.5732831954956055, -1.4667096138000488, -3.8009350299835205, 
204, 246860321, -169.25250244140625, -79.72488403320312, -140.57020568847656, 9.854920387268066, -0.8296372294425964, -1.5018658638000488, 2.5861542224884033, -1.4064264297485352, -3.006573438644409, 
205, 246868654, -169.3243408203125, -79.71832275390625, -140.47267150878906, 9.871500015258789, -0.8245663642883301, -1.4986821413040161, 2.7939112186431885, -1.3143433332443237, -1.9182500839233398, 
206, 246876987, -169.40647888183594, -79.72225952148438, -140.38133239746094, 9.872732162475586, -0.812461793422699, -1.4864698648452759, 2.77608323097229, -1.1111708879470825, -0.9594066739082336, 
207, 246885320, -169.39010620117188, -79.71357727050781, -140.37161254882812, 9.85539436340332, -0.8423025608062744, -1.4902538061141968, 3.030381679534912, -1.2027677297592163, -0.02774021588265896, 
208, 246893653, -169.38284301757812, -79.71455383300781, -140.36798095703125, 9.863630294799805, -0.8294222354888916, -1.513166069984436, 3.0637056827545166, -1.1434961557388306, 0.866516649723053, 
209, 246901986, -169.27734375, -79.70359802246094, -140.44664001464844, 9.865070343017578, -0.810863196849823, -1.5033700466156006, 3.29561710357666, -1.1208020448684692, 1.8862448930740356, 
210, 246910319, -169.17030334472656, -79.7011489868164, -140.54318237304688, 9.868162155151367, -0.8236701488494873, -1.5261166095733643, 3.378504991531372, -1.1580196619033813, 2.9228532314300537, 
211, 246918652, -168.97247314453125, -79.6882095336914, -140.713623046875, 9.871023178100586, -0.8374236226081848, -1.4714901447296143, 3.538696527481079, -0.9853028059005737, 3.877290964126587, 
212, 246926985, -168.7766571044922, -79.68397521972656, -140.89822387695312, 9.871509552001953, -0.8194069862365723, -1.505907654762268, 3.647864580154419, -1.0314340591430664, 4.724661350250244, 
213, 246935318, -168.4948272705078, -79.6685562133789, -141.15260314941406, 9.867622375488281, -0.8211913108825684, -1.5200330018997192, 3.7172789573669434, -0.8895311951637268, 5.721516132354736, 
214, 246943651, -168.2062225341797, -79.66161346435547, -141.42918395996094, 9.876185417175293, -0.8151862621307373, -1.517086148262024, 3.8439674377441406, -0.9177325963973999, 6.656436443328857, 
215, 246951984, -167.84181213378906, -79.6429443359375, -141.76573181152344, 9.859070777893066, -0.7988156080245972, -1.5250276327133179, 3.936664581298828, -0.8438610434532166, 7.555060386657715, 
216, 246960317, -167.47195434570312, -79.63246154785156, -142.12252807617188, 9.882305145263672, -0.8270965814590454, -1.5529857873916626, 4.010459899902344, -0.9033372402191162, 8.38708782196045, 
217, 246968650, -167.02862548828125, -79.6103744506836, -142.53721618652344, 9.864680290222168, -0.7959258556365967, -1.5679020881652832, 4.186864376068115, -0.7739085555076599, 9.32418441772461, 
218, 246976983, -166.5730743408203, -79.59574890136719, -142.97865295410156, 9.87645149230957, -0.8036227226257324, -1.5880924463272095, 4.2708024978637695, -0.8672979474067688, 10.231158256530762, 
219, 246985316, -166.05857849121094, -79.5673599243164, -143.46376037597656, 9.86976146697998, -0.7969657778739929, -1.5740915536880493, 4.432352066040039, -0.980769157409668, 11.028812408447266, 
220, 246993649, -165.52601623535156, -79.54833221435547, -143.98011779785156, 9.878314018249512, -0.8026209473609924, -1.5321180820465088, 4.628352165222168, -0.7934266924858093, 11.905128479003906, 
221, 247001982, -164.94143676757812, -79.51564025878906, -144.53517150878906, 9.867749214172363, -0.809609591960907, -1.5794329643249512, 4.599906921386719, -0.8849334716796875, 12.700947761535645, 
222, 247010315, -164.34149169921875, -79.48985290527344, -145.1194610595703, 9.86865234375, -0.7910469174385071, -1.5652642250061035, 4.708114147186279, -0.9649651646614075, 13.529376029968262, 
223, 247018648, -163.6962432861328, -79.45137023925781, -145.7344207763672, 9.89088249206543, -0.8023495674133301, -1.5457724332809448, 4.8380560874938965, -0.8995720744132996, 14.234383583068848, 
224, 247026981, -163.03883361816406, -79.4200439453125, -146.3749237060547, 9.881987571716309, -0.7883122563362122, -1.5475993156433105, 4.912439823150635, -0.9488538503646851, 14.92901611328125, 
225, 247035314, -162.34095764160156, -79.37480926513672, -147.0429229736328, 9.876302719116211, -0.7845752239227295, -1.5763938426971436, 4.910365581512451, -0.9753391742706299, 15.696600914001465, 
226, 247043647, -161.63023376464844, -79.33686828613281, -147.73777770996094, 9.872458457946777, -0.760046660900116, -1.5667723417282104, 5.007711887359619, -0.968077540397644, 16.342092514038086, 
227, 247051980, -160.88670349121094, -79.28468322753906, -148.4508056640625, 9.880072593688965, -0.7846726179122925, -1.5938438177108765, 5.102293014526367, -1.017551302909851, 17.042678833007812, 
228, 247060313, -160.12741088867188, -79.23804473876953, -149.1924591064453, 9.899014472961426, -0.7693972587585449, -1.5829161405563354, 5.227213382720947, -1.1466983556747437, 17.768943786621094, 
229, 247068646, -159.3463592529297, -79.17778778076172, -149.94281005859375, 9.884894371032715, -0.7566357254981995, -1.5374336242675781, 5.235947608947754, -1.140243411064148, 18.324312210083008, 
230, 247076979, -158.55636596679688, -79.12442016601562, -150.71417236328125, 9.874921798706055, -0.7746213674545288, -1.5666567087173462, 5.340660095214844, -1.1391936540603638, 18.820131301879883, 
231, 247085312, -157.74774169921875, -79.05841064453125, -151.49252319335938, 9.885751724243164, -0.7713465094566345, -1.550855040550232, 5.295501708984375, -0.9678086042404175, 19.35603141784668, 
232, 247093645, -156.93356323242188, -78.99826049804688, -152.28897094726562, 9.886002540588379, -0.7447735667228699, -1.5681227445602417, 5.418821334838867, -1.1052418947219849, 19.790334701538086, 
233, 247101978, -156.1092071533203, -78.92312622070312, -153.08152770996094, 9.890419006347656, -0.7564572691917419, -1.5546528100967407, 5.547904014587402, -1.2176499366760254, 20.3005313873291, 
234, 247110311, -155.2777099609375, -78.8544921875, -153.89344787597656, 9.895068168640137, -0.7279277443885803, -1.5580525398254395, 5.632507801055908, -1.2334283590316772, 20.731748580932617, 
235, 247118644, -154.43753051757812, -78.77245330810547, -154.70144653320312, 9.890996932983398, -0.7399600744247437, -1.5664492845535278, 5.686502933502197, -1.1213403940200806, 21.213579177856445, 
236, 247126977, -153.59690856933594, -78.69700622558594, -155.52088928222656, 9.888121604919434, -0.7458236217498779, -1.544203758239746, 5.643471717834473, -1.1930091381072998, 21.515825271606445, 
237, 247135310, -152.76197814941406, -78.608154296875, -156.32366943359375, 9.887101173400879, -0.7227548956871033, -1.563619613647461, 5.723618507385254, -1.1683168411254883, 21.73006248474121, 
238, 247143643, -151.92453002929688, -78.52544403076172, -157.13690185546875, 9.88255500793457, -0.7149945497512817, -1.563104510307312, 5.80101203918457, -1.2785223722457886, 22.08063316345215, 
239, 247151976, -151.096923828125, -78.42877197265625, -157.93228149414062, 9.877439498901367, -0.7109211087226868, -1.5789285898208618, 5.776269435882568, -1.3139725923538208, 22.297128677368164, 
240, 247160309, -150.2724151611328, -78.3392105102539, -158.73316955566406, 9.866658210754395, -0.7004132270812988, -1.5584348440170288, 5.828240394592285, -1.3673269748687744, 22.478139877319336, 
241, 247168642, -149.46238708496094, -78.23717498779297, -159.5116729736328, 9.881898880004883, -0.692290723323822, -1.5371145009994507, 5.718777656555176, -1.2897030115127563, 22.556713104248047, 
242, 247176975, -148.6544189453125, -78.1427993774414, -160.29669189453125, 9.8836030960083, -0.7026934623718262, -1.5446393489837646, 5.729253768920898, -1.3021258115768433, 22.753278732299805, 
243, 247185308, -147.86317443847656, -78.03533935546875, -161.05548095703125, 9.897322654724121, -0.6790406703948975, -1.5470163822174072, 5.845132350921631, -1.3015110492706299, 22.775840759277344, 
244, 247193641, -147.07974243164062, -77.93647766113281, -161.81466674804688, 9.912864685058594, -0.670100212097168, -1.5278146266937256, 5.807249069213867, -1.309400200843811, 22.81595230102539, 
245, 247201974, -146.31494140625, -77.82564544677734, -162.5474853515625, 9.89083194732666, -0.6545858383178711, -1.5607762336730957, 5.786258220672607, -1.2075451612472534, 22.74667739868164, 
246, 247210307, -145.5634307861328, -77.72319793701172, -163.27418518066406, 9.86020565032959, -0.6596064567565918, -1.5949692726135254, 5.81419038772583, -1.3777134418487549, 22.706451416015625, 
247, 247218640, -144.83401489257812, -77.60818481445312, -163.97178649902344, 9.86235237121582, -0.6435079574584961, -1.559376835823059, 5.751666069030762, -1.3519455194473267, 22.571674346923828, 
248, 247226973, -144.1254425048828, -77.50257110595703, -164.6551971435547, 9.88080883026123, -0.634929895401001, -1.5682547092437744, 5.7662034034729, -1.5784653425216675, 22.336240768432617, 
249, 247235306, -143.43557739257812, -77.38385009765625, -165.31362915039062, 9.850948333740234, -0.6382917761802673, -1.56061589717865, 5.663489818572998, -1.5745460987091064, 22.29082679748535, 
250, 247243639, -142.7639617919922, -77.27703094482422, -165.9596405029297, 9.850680351257324, -0.6237175464630127, -1.5472023487091064, 5.5738396644592285, -1.5619183778762817, 21.998310089111328, 
251, 247251972, -142.1165771484375, -77.15770721435547, -166.5764617919922, 9.844758033752441, -0.6094638705253601, -1.5408445596694946, 5.499852180480957, -1.6085745096206665, 21.731597900390625, 
252, 247260305, -141.4881591796875, -77.05138397216797, -167.1782989501953, 9.839529037475586, -0.6214258670806885, -1.5612208843231201, 5.487058162689209, -1.5760060548782349, 21.375394821166992, 
253, 247268638, -140.88473510742188, -76.93199920654297, -167.751220703125, 9.849507331848145, -0.6207343339920044, -1.5727348327636719, 5.424686908721924, -1.705690860748291, 21.05877685546875, 
254, 247276971, -140.30126953125, -76.8271255493164, -168.30836486816406, 9.84251880645752, -0.6136610507965088, -1.5619040727615356, 5.502862453460693, -1.6434996128082275, 20.613115310668945, 
255, 247285304, -139.73947143554688, -76.70978546142578, -168.83908081054688, 9.818425178527832, -0.6255733370780945, -1.5627225637435913, 5.426838397979736, -1.6663473844528198, 20.237070083618164, 
256, 247293637, -139.2028350830078, -76.60769653320312, -169.3470458984375, 9.823777198791504, -0.6313053965568542, -1.5639867782592773, 5.2958478927612305, -1.6802048683166504, 19.722583770751953, 
257, 247301970, -138.68728637695312, -76.49299621582031, -169.8324432373047, 9.826990127563477, -0.6210265159606934, -1.5428847074508667, 5.222360134124756, -1.7249271869659424, 19.27722930908203, 
258, 247310303, -138.1957550048828, -76.39427185058594, -170.29876708984375, 9.810639381408691, -0.5982996821403503, -1.5497372150421143, 5.23728084564209, -1.7489150762557983, 18.76905632019043, 
259, 247318636, -137.72723388671875, -76.28373718261719, -170.73744201660156, 9.812329292297363, -0.6133608222007751, -1.5220502614974976, 5.0762434005737305, -1.7814964056015015, 18.148218154907227, 
260, 247326969, -137.2811737060547, -76.1908187866211, -171.15565490722656, 9.80709457397461, -0.6123931407928467, -1.5583198070526123, 5.036733627319336, -1.686915397644043, 17.61370849609375, 
261, 247335302, -136.85821533203125, -76.08586120605469, -171.5490264892578, 9.79655647277832, -0.6157993674278259, -1.558678150177002, 4.929422378540039, -1.7826486825942993, 16.899646759033203, 
262, 247343635, -136.4607696533203, -75.99887084960938, -171.92030334472656, 9.791548728942871, -0.5989307165145874, -1.568958044052124, 4.860392093658447, -1.7792421579360962, 16.348125457763672, 
263, 247351968, -136.08021545410156, -75.89994812011719, -172.27133178710938, 9.781346321105957, -0.5827144980430603, -1.5123553276062012, 4.81119966506958, -1.7736966609954834, 15.638160705566406, 
264, 247360301, -135.7308807373047, -75.82086944580078, -172.59291076660156, 9.772316932678223, -0.6018385291099548, -1.5476926565170288, 4.61842679977417, -1.7911652326583862, 14.925544738769531, 
265, 247368634, -135.39442443847656, -75.72872924804688, -172.90093994140625, 9.756689071655273, -0.5697611570358276, -1.5348279476165771, 4.558732986450195, -1.799041748046875, 14.269193649291992, 
266, 247376967, -135.091552734375, -75.65830993652344, -173.1775665283203, 9.764993667602539, -0.5790557265281677, -1.5629397630691528, 4.405085563659668, -1.781457781791687, 13.433439254760742, 
267, 247385300, -134.79962158203125, -75.57455444335938, -173.4412841796875, 9.777097702026367, -0.5890300869941711, -1.5264694690704346, 4.388922691345215, -1.8113747835159302, 12.722847938537598, 
268, 247393633, -134.54051208496094, -75.51314544677734, -173.674560546875, 9.760591506958008, -0.5819154977798462, -1.5509759187698364, 4.318048000335693, -1.7979787588119507, 11.925862312316895, 
269, 247401966, -134.29513549804688, -75.43744659423828, -173.89186096191406, 9.755880355834961, -0.5780174136161804, -1.5611275434494019, 4.2141828536987305, -1.9650347232818604, 11.12569808959961, 
270, 247410299, -134.0822296142578, -75.38581085205078, -174.077880859375, 9.754118919372559, -0.5913345813751221, -1.541556715965271, 4.057295322418213, -1.8411897420883179, 10.311627388000488, 
271, 247418632, -133.88043212890625, -75.32074737548828, -174.2532958984375, 9.740585327148438, -0.575916051864624, -1.5245081186294556, 3.8641252517700195, -1.8747830390930176, 9.381458282470703, 
272, 247426965, -133.7144012451172, -75.2800064086914, -174.392578125, 9.741735458374023, -0.5749785304069519, -1.560068964958191, 3.8893043994903564, -1.8889989852905273, 8.546844482421875, 
273, 247435298, -133.5516815185547, -75.22518920898438, -174.52867126464844, 9.741353034973145, -0.5777857899665833, -1.5266921520233154, 3.7464535236358643, -1.8152297735214233, 7.700677394866943, 
274, 247443631, -133.4313507080078, -75.19561004638672, -174.62522888183594, 9.7350492477417, -0.5779256820678711, -1.5336021184921265, 3.581561803817749, -1.9123460054397583, 6.794765949249268, 
275, 247451964, -133.3121795654297, -75.1509017944336, -174.71853637695312, 9.748933792114258, -0.5795695781707764, -1.5398051738739014, 3.4931154251098633, -1.8941086530685425, 5.950135231018066, 
276, 247460297, -133.2315673828125, -75.13341522216797, -174.7748260498047, 9.728513717651367, -0.5878663659095764, -1.531610131263733, 3.3999054431915283, -1.7837882041931152, 5.052433490753174, 
277, 247468630, -133.15211486816406, -75.09960174560547, -174.8287811279297, 9.723072052001953, -0.5801711678504944, -1.5614012479782104, 3.2951433658599854, -1.865190029144287, 4.189669132232666, 
278, 247476963, -133.1183624267578, -75.09317779541016, -174.83978271484375, 9.740126609802246, -0.5757458806037903, -1.521687626838684, 3.1863980293273926, -1.9191721677780151, 3.23824143409729, 
279, 247485296, -133.08203125, -75.07147216796875, -174.8507080078125, 9.756658554077148, -0.56306391954422, -1.5273699760437012, 3.1100168228149414, -1.83766770362854, 2.2331130504608154, 
280, 247493629, -133.0922393798828, -75.07713317871094, -174.81964111328125, 9.74428653717041, -0.5621762871742249, -1.5163586139678955, 2.8734428882598877, -1.9069794416427612, 1.4182727336883545, 
281, 247501962, -133.09422302246094, -75.06678009033203, -174.7937469482422, 9.726569175720215, -0.5733256340026855, -1.522258996963501, 2.7840754985809326, -1.7400519847869873, 0.4673957824707031, 
282, 247510295, -133.14747619628906, -75.0857162475586, -174.71865844726562, 9.72100830078125, -0.5663551092147827, -1.5251102447509766, 2.7225115299224854, -1.80002760887146, -0.5246179103851318, 
283, 247518628, -133.1931915283203, -75.08819580078125, -174.6497039794922, 9.743600845336914, -0.5597883462905884, -1.5184561014175415, 2.530917167663574, -1.6625049114227295, -1.5575376749038696, 
284, 247526961, -133.28936767578125, -75.1185531616211, -174.53341674804688, 9.769152641296387, -0.566629946231842, -1.5123116970062256, 2.4890120029449463, -1.8150373697280884, -2.279756546020508, 
285, 247535294, -133.37298583984375, -75.13089752197266, -174.42689514160156, 9.752058029174805, -0.5671449899673462, -1.5182695388793945, 2.3449063301086426, -1.690181016921997, -3.20170259475708, 
286, 247543627, -133.5154571533203, -75.1729736328125, -174.26580810546875, 9.735189437866211, -0.5668803453445435, -1.5208982229232788, 2.2660529613494873, -1.8585944175720215, -4.133701801300049, 
287, 247551960, -133.64480590820312, -75.19589233398438, -174.11451721191406, 9.740372657775879, -0.5651390552520752, -1.524907112121582, 2.049856185913086, -1.7915750741958618, -5.052907466888428, 
288, 247560293, -133.8282012939453, -75.25081634521484, -173.91372680664062, 9.725171089172363, -0.5771631598472595, -1.5217887163162231, 1.9713740348815918, -1.6306661367416382, -5.9431047439575195, 
289, 247568626, -133.99424743652344, -75.28607177734375, -173.7255096435547, 9.728395462036133, -0.5811477303504944, -1.5243887901306152, 1.947232723236084, -1.53360116481781, -6.8853888511657715, 
290, 247576959, -134.22235107421875, -75.35173797607422, -173.4813995361328, 9.744781494140625, -0.594635009765625, -1.5449953079223633, 1.8922134637832642, -1.6407713890075684, -7.685450077056885, 
291, 247585292, -134.42747497558594, -75.39610290527344, -173.2542724609375, 9.7413911819458, -0.5904116034507751, -1.5145057439804077, 1.788180947303772, -1.5384807586669922, -8.460958480834961, 
292, 247593625, -134.6949005126953, -75.4728775024414, -172.97442626953125, 9.753154754638672, -0.5713843703269958, -1.5162668228149414, 1.6269395351409912, -1.4168387651443481, -9.28345775604248, 
293, 247601958, -134.94244384765625, -75.52784729003906, -172.7069854736328, 9.762734413146973, -0.5889953970909119, -1.5277704000473022, 1.4039677381515503, -1.392377257347107, -10.174935340881348, 
294, 247610291, -135.255859375, -75.6130599975586, -172.3826141357422, 9.756793975830078, -0.588182806968689, -1.5367413759231567, 1.4049408435821533, -1.4880590438842773, -10.793354034423828, 
295, 247618624, -135.54617309570312, -75.67633819580078, -172.07203674316406, 9.79030704498291, -0.5890724658966064, -1.5314840078353882, 1.3124480247497559, -1.4253684282302856, -11.734407424926758, 
296, 247626957, -135.90676879882812, -75.77054595947266, -171.70245361328125, 9.790278434753418, -0.5717083215713501, -1.5445564985275269, 1.3364485502243042, -1.4903260469436646, -12.376864433288574, 
297, 247635290, -136.2357177734375, -75.84088897705078, -171.35287475585938, 9.784833908081055, -0.5930383205413818, -1.507743000984192, 1.2523183822631836, -1.406349778175354, -13.079474449157715, 
298, 247643623, -136.6378936767578, -75.94255065917969, -170.9444122314453, 9.80400276184082, -0.5971198081970215, -1.5264837741851807, 1.0666282176971436, -1.3783278465270996, -13.650161743164062, 
299, 247651956, -137.0099334716797, -76.02029418945312, -170.55328369140625, 9.793927192687988, -0.589141309261322, -1.5500963926315308, 0.9514920115470886, -1.3366661071777344, -14.473977088928223, 
300, 247660289, -137.4554901123047, -76.12918853759766, -170.10214233398438, 9.811774253845215, -0.6117808818817139, -1.5270659923553467, 0.9017494320869446, -1.2386151552200317, -14.941926956176758, 
301, 247668622, -137.86514282226562, -76.2124252319336, -169.6737518310547, 9.8140869140625, -0.6087427735328674, -1.530156135559082, 0.8276216387748718, -1.2515758275985718, -15.604156494140625, 
302, 247676955, -138.36471557617188, -76.32701873779297, -169.1709747314453, 9.81051254272461, -0.6196935176849365, -1.534677505493164, 0.7820924520492554, -1.3636510372161865, -16.31673240661621, 
303, 247685288, -138.8138427734375, -76.41604614257812, -168.70248413085938, 9.836674690246582, -0.6052278280258179, -1.516599178314209, 0.8143278956413269, -1.1218781471252441, -16.780479431152344, 
304, 247693621, -139.3502960205078, -76.53577423095703, -168.16517639160156, 9.83565902709961, -0.6084237694740295, -1.5162492990493774, 0.6717591285705566, -1.0992738008499146, -17.248695373535156, 
305, 247701954, -139.84097290039062, -76.62787628173828, -167.65579223632812, 9.837555885314941, -0.6215001940727234, -1.553610920906067, 0.6596435904502869, -1.152909755706787, -17.73444366455078, 
306, 247710287, -140.42385864257812, -76.75137329101562, -167.07203674316406, 9.838987350463867, -0.6318310499191284, -1.518965244293213, 0.5521790385246277, -1.0340725183486938, -18.252885818481445, 
307, 247718620, -140.95167541503906, -76.84627532958984, -166.52516174316406, 9.846445083618164, -0.6262990236282349, -1.5088566541671753, 0.6367700099945068, -1.067230224609375, -18.565828323364258, 
308, 247726953, -141.5752716064453, -76.9716567993164, -165.90293884277344, 9.843741416931152, -0.6439664363861084, -1.5115448236465454, 0.5324432253837585, -0.9555777311325073, -18.987003326416016, 
309, 247735286, -142.14097595214844, -77.06919860839844, -165.3196563720703, 9.856315612792969, -0.6347228288650513, -1.5111701488494873, 0.417153537273407, -0.8938730359077454, -19.33889389038086, 
310, 247743619, -142.8064422607422, -77.19578552246094, -164.65609741210938, 9.870538711547852, -0.6274107694625854, -1.5142686367034912, 0.47875577211380005, -0.8813731670379639, -19.66068458557129, 
311, 247751952, -143.4079132080078, -77.29280090332031, -164.0356903076172, 9.879449844360352, -0.6342154741287231, -1.515106201171875, 0.5426889657974243, -0.9518123865127563, -19.86867332458496, 
312, 247760285, -144.1152801513672, -77.4182357788086, -163.33218383789062, 9.86579418182373, -0.6476946473121643, -1.5264770984649658, 0.41180023550987244, -0.9320639371871948, -20.14838218688965, 
313, 247768618, -144.74595642089844, -77.51441955566406, -162.68394470214844, 9.866180419921875, -0.6401873230934143, -1.5210782289505005, 0.37317389249801636, -0.8327831029891968, -20.170129776000977, 
314, 247776951, -145.48545837402344, -77.63819122314453, -161.94818115234375, 9.887269973754883, -0.6555967926979065, -1.5120679140090942, 0.40224605798721313, -0.8315536379814148, -20.388385772705078, 
315, 247785284, -146.15017700195312, -77.73304748535156, -161.26593017578125, 9.920478820800781, -0.6779497265815735, -1.517682433128357, 0.35069742798805237, -0.798011839389801, -20.556713104248047, 
316, 247793617, -146.91978454589844, -77.85363006591797, -160.50294494628906, 9.887420654296875, -0.6722500324249268, -1.4966334104537964, 0.310944139957428, -0.7741649746894836, -20.473363876342773, 
317, 247801950, -147.60366821289062, -77.94534301757812, -159.80113220214844, 9.8897066116333, -0.7107366919517517, -1.4811972379684448, 0.4197022318840027, -0.7054932117462158, -20.504898071289062, 
318, 247810283, -148.3942108154297, -78.06285095214844, -159.0160675048828, 9.899473190307617, -0.7146754860877991, -1.511473536491394, 0.43010151386260986, -0.5866685509681702, -20.409889221191406, 
319, 247818616, -149.0938262939453, -78.15113830566406, -158.29867553710938, 9.902667045593262, -0.6847370266914368, -1.4939031600952148, 0.44160234928131104, -0.5596455335617065, -20.36147689819336, 
320, 247826949, -149.9050750732422, -78.26528930664062, -157.49374389648438, 9.893351554870605, -0.7227721214294434, -1.4959014654159546, 0.4921392500400543, -0.40403905510902405, -20.316423416137695, 
321, 247835282, -150.61572265625, -78.34928894042969, -156.76528930664062, 9.878293991088867, -0.7031021118164062, -1.534830927848816, 0.49157580733299255, -0.4545503854751587, -20.071861267089844, 
322, 247843615, -151.44241333007812, -78.45503234863281, -155.94699096679688, 9.899150848388672, -0.7057915329933167, -1.5677661895751953, 0.43125420808792114, -0.643660306930542, -19.819353103637695, 
323, 247851948, -152.1643829345703, -78.53306579589844, -155.20774841308594, 9.896347045898438, -0.7177146077156067, -1.549877405166626, 0.45376911759376526, -0.5483497381210327, -19.688899993896484, 
324, 247860281, -152.99676513671875, -78.63282012939453, -154.3818359375, 9.910266876220703, -0.729006826877594, -1.5571860074996948, 0.5926751494407654, -0.560542106628418, -19.333221435546875, 
325, 247868614, -153.71429443359375, -78.70391082763672, -153.6451416015625, 9.902135848999023, -0.7520312070846558, -1.5726854801177979, 0.7489988207817078, -0.6025750041007996, -19.015525817871094, 
326, 247876947, -154.54278564453125, -78.79654693603516, -152.8240966796875, 9.894017219543457, -0.7538543939590454, -1.55034601688385, 0.7236536145210266, -0.5537031292915344, -18.607492446899414, 
327, 247885280, -155.2489776611328, -78.86124420166016, -152.09945678710938, 9.880210876464844, -0.7490492463111877, -1.5527135133743286, 0.7600896954536438, -0.5596198439598083, -18.206010818481445, 
328, 247893613, -156.07061767578125, -78.94758605957031, -151.28521728515625, 9.89389419555664, -0.7637693285942078, -1.5430148839950562, 0.7540961503982544, -0.45145106315612793, -17.902921676635742, 
329, 247901946, -156.7628173828125, -79.00527954101562, -150.5742950439453, 9.875846862792969, -0.7472834587097168, -1.5449682474136353, 0.8673366904258728, -0.6364370584487915, -17.362024307250977, 
330, 247910279, -157.5644073486328, -79.08211517333984, -149.78065490722656, 9.893152236938477, -0.7654005885124207, -1.5650510787963867, 0.8777486681938171, -0.6729116439819336, -16.82274055480957, 
331, 247918612, -158.22674560546875, -79.13284301757812, -149.0988006591797, 9.877690315246582, -0.7755634784698486, -1.575001835823059, 1.0794352293014526, -0.6390112638473511, -16.25173568725586, 
332, 247926945, -159.00186157226562, -79.2022933959961, -148.33047485351562, 9.883278846740723, -0.7915949821472168, -1.5781172513961792, 1.172555923461914, -0.6871532201766968, -15.804754257202148, 
333, 247935278, -159.63099670410156, -79.24626159667969, -147.6822052001953, 9.88444995880127, -0.7747880220413208, -1.5893309116363525, 1.139052391052246, -0.6702990531921387, -15.09319019317627, 
334, 247943611, -160.3610076904297, -79.30778503417969, -146.9587860107422, 9.881567001342773, -0.7883075475692749, -1.5259063243865967, 1.3630871772766113, -0.7070937752723694, -14.40277099609375, 
335, 247951944, -160.9463653564453, -79.3443603515625, -146.3534698486328, 9.879122734069824, -0.7794003486633301, -1.5657849311828613, 1.3806586265563965, -0.7775586843490601, -13.770740509033203, 
336, 247960277, -161.63331604003906, -79.39765167236328, -145.6724395751953, 9.877076148986816, -0.7899435758590698, -1.5643500089645386, 1.4669146537780762, -0.8743932247161865, -13.079833030700684, 
337, 247968610, -162.16343688964844, -79.42750549316406, -145.1225128173828, 9.88079833984375, -0.7939543128013611, -1.5773323774337769, 1.4874314069747925, -0.8435023427009583, -12.245705604553223, 
338, 247976943, -162.79347229003906, -79.4740982055664, -144.49874877929688, 9.851807594299316, -0.7947151064872742, -1.579691767692566, 1.631882905960083, -0.8953326940536499, -11.584333419799805, 
339, 247985276, -163.2708282470703, -79.49805450439453, -144.00146484375, 9.874473571777344, -0.7911710739135742, -1.5488933324813843, 1.6436783075332642, -0.9063085913658142, -10.857157707214355, 
340, 247993609, -163.84385681152344, -79.53685760498047, -143.43310546875, 9.86812973022461, -0.7944508194923401, -1.5675781965255737, 1.836668848991394, -1.1193804740905762, -10.110488891601562, 
341, 248001942, -164.2559814453125, -79.55410766601562, -143.00022888183594, 9.84837818145752, -0.7989785671234131, -1.5929439067840576, 1.8880385160446167, -1.0880416631698608, -9.226095199584961, 
342, 248010275, -164.75360107421875, -79.58657836914062, -142.50848388671875, 9.871607780456543, -0.7819291949272156, -1.5574907064437866, 2.0463595390319824, -1.1770508289337158, -8.33853530883789, 
343, 248018608, -165.08970642089844, -79.5989990234375, -142.1516571044922, 9.8527250289917, -0.8038387298583984, -1.5845478773117065, 2.057053565979004, -1.068894863128662, -7.443228721618652, 
344, 248026941, -165.5110626220703, -79.62660217285156, -141.73458862304688, 9.855063438415527, -0.7876889705657959, -1.5795117616653442, 2.1849327087402344, -1.146467685699463, -6.617847442626953, 
345, 248035274, -165.77696228027344, -79.63401794433594, -141.44656372070312, 9.860538482666016, -0.8225292563438416, -1.5324519872665405, 2.3740427494049072, -1.180867314338684, -5.827059268951416, 
346, 248043607, -166.11936950683594, -79.65625, -141.1084442138672, 9.836331367492676, -0.8232022523880005, -1.5776447057724, 2.4556877613067627, -1.2350414991378784, -4.8798699378967285, 
347, 248051940, -166.30429077148438, -79.65862274169922, -140.90048217773438, 9.8455171585083, -0.8311282992362976, -1.546181321144104, 2.6464245319366455, -1.3063771724700928, -3.9893405437469482, 
348, 248060273, -166.55999755859375, -79.67555236816406, -140.64846801757812, 9.844820976257324, -0.8263465166091919, -1.5588910579681396, 2.6470649242401123, -1.3430824279785156, -2.9846222400665283, 
349, 248068606, -166.66232299804688, -79.67318725585938, -140.52284240722656, 9.860804557800293, -0.8272704482078552, -1.5480961799621582, 2.864196538925171, -1.4040699005126953, -2.133512020111084, 
350, 248076939, -166.83352661132812, -79.6850814819336, -140.35498046875, 9.84359073638916, -0.8109704256057739, -1.5655561685562134, 2.8987503051757812, -1.4928233623504639, -1.1705962419509888, 
351, 248085272, -166.85427856445312, -79.67798614501953, -140.3114471435547, 9.868269920349121, -0.8234315514564514, -1.5430206060409546, 2.962862968444824, -1.557166337966919, -0.2795025408267975, 
352, 248093605, -166.9404754638672, -79.68614959716797, -140.2270050048828, 9.865652084350586, -0.8186661601066589, -1.5695258378982544, 3.160553216934204, -1.5138013362884521, 0.6077104806900024, 
353, 248101938, -166.87135314941406, -79.67557525634766, -140.27285766601562, 9.865795135498047, -0.8352988362312317, -1.5528284311294556, 3.203277349472046, -1.535342812538147, 1.6924219131469727, 
354, 248110271, -166.86468505859375, -79.6788101196289, -140.2821502685547, 9.852659225463867, -0.8125735521316528, -1.5949196815490723, 3.340442657470703, -1.632779598236084, 2.5982441902160645, 
355, 248118604, -166.71237182617188, -79.66417694091797, -140.40980529785156, 9.853541374206543, -0.8250769376754761, -1.5586671829223633, 3.5452663898468018, -1.6008256673812866, 3.5221364498138428, 
356, 248126937, -166.6145477294922, -79.6629409790039, -140.5083465576172, 9.858102798461914, -0.806734025478363, -1.5607644319534302, 3.623863697052002, -1.7065740823745728, 4.5260233879089355, 
357, 248135270, -166.37692260742188, -79.64302062988281, -140.72134399414062, 9.855581283569336, -0.8009145855903625, -1.5685292482376099, 3.7160489559173584, -1.7825201749801636, 5.476259231567383, 
358, 248143603, -166.1948699951172, -79.6383285522461, -140.90277099609375, 9.835023880004883, -0.8037461638450623, -1.577732801437378, 3.9356789588928223, -1.67561936378479, 6.283787250518799, 
359, 248151936, -165.8757781982422, -79.6145248413086, -141.19638061523438, 9.851435661315918, -0.8147518038749695, -1.5660320520401, 3.9860613346099854, -1.7837368249893188, 7.308586120605469, 
360, 248160269, -165.6133270263672, -79.60316467285156, -141.45823669433594, 9.832547187805176, -0.8177262544631958, -1.5479934215545654, 4.055118083953857, -1.9785079956054688, 8.10196304321289, 
361, 248168602, -165.21987915039062, -79.5733413696289, -141.82545471191406, 9.849010467529297, -0.8015057444572449, -1.5763051509857178, 4.232316970825195, -2.0010738372802734, 9.0731782913208, 
362, 248176935, -164.87733459472656, -79.55827331542969, -142.16700744628906, 9.855504035949707, -0.7898886203765869, -1.5682753324508667, 4.244279384613037, -1.8953896760940552, 9.838299751281738, 
363, 248185268, -164.4134979248047, -79.52442932128906, -142.60491943359375, 9.866572380065918, -0.794198751449585, -1.5620120763778687, 4.348362445831299, -1.9449657201766968, 10.746490478515625, 
364, 248193601, -163.99856567382812, -79.50304412841797, -143.0178680419922, 9.870552062988281, -0.7862568497657776, -1.5629363059997559, 4.481966972351074, -2.0745742321014404, 11.512972831726074, 
365, 248201934, -163.468017578125, -79.46366882324219, -143.5219268798828, 9.86990737915039, -0.7929752469062805, -1.5634479522705078, 4.579146862030029, -1.994401216506958, 12.395228385925293, 
366, 248210267, -162.98117065429688, -79.43692779541016, -144.00575256347656, 9.875406265258789, -0.7794363498687744, -1.5602402687072754, 4.786634922027588, -2.09733247756958, 13.1734037399292, 
367, 248218600, -162.3906707763672, -79.39112091064453, -144.56979370117188, 9.870713233947754, -0.7849172949790955, -1.561070442199707, 4.7187581062316895, -2.1022121906280518, 13.983917236328125, 
368, 248226933, -161.84469604492188, -79.35893249511719, -145.1143798828125, 9.864374160766602, -0.7805184125900269, -1.5728410482406616, 4.850196838378906, -2.0771355628967285, 14.638319969177246, 
369, 248235266, -161.20553588867188, -79.3083724975586, -145.7264862060547, 9.882183074951172, -0.7811626195907593, -1.5614582300186157, 4.903910160064697, -2.01924729347229, 15.304546356201172, 
370, 248243599, -160.6065216064453, -79.26988983154297, -146.32382202148438, 9.84993839263916, -0.7725450396537781, -1.570447325706482, 5.006520748138428, -2.1178619861602783, 16.033424377441406, 
371, 248251932, -159.92247009277344, -79.2114486694336, -146.98023986816406, 9.87790584564209, -0.7908828258514404, -1.5575040578842163, 5.109822750091553, -2.2066922187805176, 16.695653915405273, 
372, 248260265, -159.28057861328125, -79.16497039794922, -147.6195831298828, 9.878520965576172, -0.7653842568397522, -1.5795178413391113, 5.229569911956787, -2.3409621715545654, 17.316265106201172, 
373, 248268598, -158.55821228027344, -79.10017395019531, -148.31434631347656, 9.885209083557129, -0.7771780490875244, -1.549852728843689, 5.21368932723999, -2.1877379417419434, 17.959514617919922, 
374, 248276931, -157.87120056152344, -79.0477294921875, -148.998291015625, 9.865798950195312, -0.7737697958946228, -1.5374674797058105, 5.317888259887695, -2.2027223110198975, 18.63906478881836, 
375, 248285264, -157.11814880371094, -78.97552490234375, -149.72315979003906, 9.882501602172852, -0.7534480094909668, -1.5695829391479492, 5.407256603240967, -2.2362515926361084, 19.126296997070312, 
376, 248293597, -156.4038848876953, -78.91685485839844, -150.4337158203125, 9.891484260559082, -0.7564717531204224, -1.551154375076294, 5.525287628173828, -2.2022359371185303, 19.626955032348633, 
377, 248301930, -155.63165283203125, -78.83775329589844, -151.17709350585938, 9.87744140625, -0.7351062893867493, -1.5554319620132446, 5.580984592437744, -2.254680871963501, 20.072551727294922, 
378, 248310263, -154.89657592773438, -78.7718276977539, -151.90892028808594, 9.889103889465332, -0.7515920996665955, -1.555824637413025, 5.574082851409912, -2.2434239387512207, 20.591381072998047, 
379, 248318596, -154.11131286621094, -78.68629455566406, -152.66506958007812, 9.895476341247559, -0.7366861701011658, -1.5404431819915771, 5.683557987213135, -2.2225992679595947, 20.928695678710938, 
380, 248326929, -153.3657684326172, -78.61471557617188, -153.40805053710938, 9.896130561828613, -0.7350754141807556, -1.556046724319458, 5.6273088455200195, -2.1531589031219482, 21.296798706054688, 
381, 248335262, -152.5777587890625, -78.52232360839844, -154.1665802001953, 9.883878707885742, -0.7016924619674683, -1.5405631065368652, 5.79958963394165, -2.2682950496673584, 21.611108779907227, 
382, 248343595, -151.83053588867188, -78.44491577148438, -154.9100341796875, 9.912931442260742, -0.7179495692253113, -1.5538667440414429, 5.771183967590332, -2.1536202430725098, 21.856035232543945, 
383, 248351928, -151.04669189453125, -78.34752655029297, -155.6653289794922, 9.928698539733887, -0.7094274163246155, -1.5441468954086304, 5.73514461517334, -2.1518783569335938, 22.108692169189453, 
384, 248360261, -150.30328369140625, -78.2657699584961, -156.4039764404297, 9.905482292175293, -0.7016934156417847, -1.5404525995254517, 5.881966590881348, -2.0157644748687744, 22.24268341064453, 
385, 248368594, -149.52703857421875, -78.16364288330078, -157.15133666992188, 9.907743453979492, -0.7171836495399475, -1.5237842798233032, 5.830251216888428, -2.026496648788452, 22.503742218017578, 
386, 248376927, -148.79254150390625, -78.07750701904297, -157.8815155029297, 9.911319732666016, -0.7266013026237488, -1.4690697193145752, 5.862907886505127, -1.9092856645584106, 22.56493377685547, 
387, 248385260, -148.03347778320312, -77.97171020507812, -158.6116180419922, 9.910304069519043, -0.7020336389541626, -1.4884625673294067, 5.863113880157471, -1.9024211168289185, 22.649641036987305, 
388, 248393593, -147.31654357910156, -77.88289642333984, -159.3248291015625, 9.896361351013184, -0.6934031844139099, -1.4909881353378296, 5.919540882110596, -1.7645139694213867, 22.60117530822754, 
389, 248401926, -146.57762145996094, -77.77466583251953, -160.03501892089844, 9.915989875793457, -0.674389660358429, -1.511063575744629, 5.850921630859375, -1.7023996114730835, 22.659730911254883, 
390, 248410259, -145.87496948242188, -77.68315887451172, -160.7324981689453, 9.89741325378418, -0.6778215169906616, -1.507232666015625, 5.9930033683776855, -1.590542197227478, 22.715112686157227, 
391, 248418592, -145.16372680664062, -77.57270050048828, -161.4146270751953, 9.88499641418457, -0.6541239023208618, -1.54196298122406, 5.895644187927246, -1.615234375, 22.47928237915039, 
392, 248426925, -144.4936065673828, -77.47996520996094, -162.08065795898438, 9.877090454101562, -0.6511470079421997, -1.5251030921936035, 5.947794437408447, -1.5386221408843994, 22.35213279724121, 
393, 248435258, -143.81048583984375, -77.36835479736328, -162.73475646972656, 9.878360748291016, -0.6409271359443665, -1.5325294733047485, 5.877842426300049, -1.467465877532959, 22.217580795288086, 
394, 248443591, -143.178466796875, -77.27489471435547, -163.36245727539062, 9.848858833312988, -0.6226953864097595, -1.4956674575805664, 5.7761149406433105, -1.5808216333389282, 21.86286163330078, 
395, 248451924, -142.53372192382812, -77.16340637207031, -163.9789276123047, 9.861717224121094, -0.6148387789726257, -1.5222564935684204, 5.752511024475098, -1.4080148935317993, 21.645355224609375, 
396, 248460257, -141.93417358398438, -77.07113647460938, -164.57582092285156, 9.857068061828613, -0.6285356879234314, -1.5136505365371704, 5.741176128387451, -1.4285705089569092, 21.323448181152344, 
397, 248468590, -141.32540893554688, -76.96045684814453, -165.15611267089844, 9.842464447021484, -0.6342754364013672, -1.5165455341339111, 5.725910663604736, -1.3385621309280396, 21.043357849121094, 
398, 248476923, -140.75946044921875, -76.87039184570312, -165.71864318847656, 9.845974922180176, -0.6282796263694763, -1.485586166381836, 5.704113960266113, -1.2511919736862183, 20.65512466430664, 
399, 248485256, -140.19029235839844, -76.76203155517578, -166.26023864746094, 9.814278602600098, -0.6129581928253174, -1.5050292015075684, 5.558469295501709, -1.238410234451294, 20.24424171447754, 
400, 248493589, -139.66453552246094, -76.67540740966797, -166.78207397460938, 9.836153030395508, -0.6223269104957581, -1.5139023065567017, 5.573173522949219, -1.161670207977295, 19.758060455322266, 
401, 248501922, -139.13551330566406, -76.57023620605469, -167.28302001953125, 9.831247329711914, -0.6240235567092896, -1.517690896987915, 5.542180061340332, -1.1763213872909546, 19.313114166259766, 
402, 248510255, -138.64877319335938, -76.48783111572266, -167.76736450195312, 9.844342231750488, -0.6126135587692261, -1.512205958366394, 5.328479766845703, -1.0389264822006226, 18.822114944458008, 
403, 248518588, -138.15878295898438, -76.38711547851562, -168.23043823242188, 9.820509910583496, -0.6122043132781982, -1.5253733396530151, 5.3305535316467285, -1.036928415298462, 18.311620712280273, 
404, 248526921, -137.7145233154297, -76.30933380126953, -168.67218017578125, 9.800352096557617, -0.5873695015907288, -1.531827688217163, 5.305016994476318, -1.0696635246276855, 17.719701766967773, 
405, 248535254, -137.2657470703125, -76.2145004272461, -169.09410095214844, 9.804605484008789, -0.6126828789710999, -1.5278838872909546, 5.230607986450195, -0.9239441156387329, 17.104475021362305, 
406, 248543587, -136.86643981933594, -76.14314270019531, -169.4905242919922, 9.800874710083008, -0.605999231338501, -1.54917311668396, 5.156684398651123, -1.0580346584320068, 16.41826629638672, 
407, 248551920, -136.46426391601562, -76.05361938476562, -169.8660888671875, 9.799574851989746, -0.6108652353286743, -1.5368248224258423, 5.080816268920898, -1.0473023653030396, 15.804987907409668, 
408, 248560253, -136.1051025390625, -75.98941040039062, -170.22474670410156, 9.78555679321289, -0.5959169268608093, -1.5153019428253174, 4.881792068481445, -0.9394406676292419, 15.157505989074707, 
409, 248568586, -135.74557495117188, -75.90803527832031, -170.55947875976562, 9.781294822692871, -0.6046354174613953, -1.5145635604858398, 4.7579731941223145, -0.8980736136436462, 14.357421875, 
410, 248576919, -135.42935180664062, -75.85233306884766, -170.87380981445312, 9.794483184814453, -0.5881139039993286, -1.5216586589813232, 4.811378479003906, -0.8924128413200378, 13.670804977416992, 
411, 248585252, -135.11219787597656, -75.77921295166016, -171.16592407226562, 9.7747220993042, -0.5791895389556885, -1.5220743417739868, 4.6606645584106445, -0.8596267104148865, 12.841315269470215, 
412, 248593585, -134.8404998779297, -75.7326431274414, -171.43678283691406, 9.761706352233887, -0.584056556224823, -1.5410656929016113, 4.588713645935059, -0.8734582662582397, 12.104544639587402, 
413, 248601918, -134.56700134277344, -75.6680908203125, -171.68663024902344, 9.7467679977417, -0.6008707284927368, -1.551870346069336, 4.364844799041748, -0.859447181224823, 11.28171157836914, 
414, 248610251, -134.33642578125, -75.63150024414062, -171.9169158935547, 9.759610176086426, -0.5717880725860596, -1.5547842979431152, 4.402523517608643, -0.7711806893348694, 10.508933067321777, 
415, 248618584, -134.10671997070312, -75.57646179199219, -172.12301635742188, 9.7586669921875, -0.5787835717201233, -1.5403063297271729, 4.214566707611084, -0.8788117170333862, 9.593121528625488, 
416, 248626917, -133.92491149902344, -75.55072021484375, -172.30703735351562, 9.75504207611084, -0.5806956887245178, -1.5392310619354248, 3.999022960662842, -0.7888289093971252, 8.701848030090332, 
417, 248635250, -133.7364044189453, -75.50565338134766, -172.472900390625, 9.72905445098877, -0.5877301096916199, -1.5366508960723877, 3.9623427391052246, -0.8441555500030518, 7.925632953643799, 
418, 248643583, -133.59471130371094, -75.48963165283203, -172.61619567871094, 9.738807678222656, -0.5796452164649963, -1.538448452949524, 3.8755881786346436, -0.8149810433387756, 7.119297981262207, 
419, 248651916, -133.44692993164062, -75.45591735839844, -172.7415313720703, 9.743781089782715, -0.5831666588783264, -1.542840600013733, 3.8004355430603027, -0.7387017607688904, 6.11347770690918, 
420, 248660249, -133.35040283203125, -75.45181274414062, -172.84146118164062, 9.7119779586792, -0.585131049156189, -1.5266631841659546, 3.586761236190796, -0.7682862281799316, 5.252557277679443, 
421, 248668582, -133.246826171875, -75.42886352539062, -172.9241943359375, 9.703572273254395, -0.5594650506973267, -1.5197643041610718, 3.4523377418518066, -0.7656735777854919, 4.305701732635498, 
422, 248676915, -133.19522094726562, -75.43590545654297, -172.9799346923828, 9.718709945678711, -0.5598652362823486, -1.5362756252288818, 3.307438373565674, -0.8056574463844299, 3.4490082263946533, 
423, 248685248, -133.1334228515625, -75.42340850830078, -173.02114868164062, 9.744063377380371, -0.5777594447135925, -1.5673953294754028, 3.268145799636841, -0.8209747076034546, 2.543647289276123, 
424, 248693581, -133.1264190673828, -75.44242858886719, -173.03277587890625, 9.714151382446289, -0.5621466636657715, -1.564982533454895, 3.0626046657562256, -0.7914543151855469, 1.5811283588409424, 
425, 248701914, -133.10784912109375, -75.4407958984375, -173.0316619873047, 9.727391242980957, -0.5658156275749207, -1.5578341484069824, 3.011798858642578, -0.8636736273765564, 0.7195039391517639, 
426, 248710247, -133.14230346679688, -75.47052764892578, -173.00364685058594, 9.715535163879395, -0.5753410458564758, -1.5579220056533813, 2.904680013656616, -0.8156212568283081, -0.12754608690738678, 
427, 248718580, -133.16807556152344, -75.47989654541016, -172.9589080810547, 9.716261863708496, -0.5474646091461182, -1.5322822332382202, 2.7599592208862305, -0.9258136749267578, -1.126219391822815, 
428, 248726913, -133.25128173828125, -75.52081298828125, -172.8821258544922, 9.710220336914062, -0.5595365166664124, -1.5469436645507812, 2.739903211593628, -0.9537842869758606, -2.0264828205108643, 
429, 248735246, -133.31959533691406, -75.54193115234375, -172.79539489746094, 9.728694915771484, -0.5718510746955872, -1.5546354055404663, 2.5498459339141846, -0.8730483651161194, -3.0062530040740967, 
430, 248743579, -133.4466552734375, -75.59449768066406, -172.67678833007812, 9.727657318115234, -0.586982011795044, -1.5312944650650024, 2.4012579917907715, -0.874175488948822, -3.8219387531280518, 
431, 248751912, -133.55792236328125, -75.62577819824219, -172.5481414794922, 9.723766326904297, -0.565851628780365, -1.5292528867721558, 2.277541160583496, -0.9251478314399719, -4.734727382659912, 
432, 248760245, -133.7332000732422, -75.68888854980469, -172.3828887939453, 9.743030548095703, -0.5898990631103516, -1.5790536403656006, 2.1786701679229736, -0.9787711501121521, -5.612181663513184, 
433, 248768578, -133.89224243164062, -75.72999572753906, -172.20726013183594, 9.746770858764648, -0.5626562833786011, -1.5580607652664185, 2.0288524627685547, -1.0615180730819702, -6.533845901489258, 
434, 248776911, -134.12106323242188, -75.80329895019531, -171.98922729492188, 9.74028491973877, -0.5827430486679077, -1.5494030714035034, 1.8999234437942505, -1.1479277610778809, -7.466013431549072, 
435, 248785244, -134.32498168945312, -75.853271484375, -171.76919555664062, 9.75338077545166, -0.5974707007408142, -1.5530457496643066, 1.8286643028259277, -1.1829934120178223, -8.16666316986084, 
436, 248793577, -134.59426879882812, -75.93627166748047, -171.51283264160156, 9.740226745605469, -0.6026410460472107, -1.5292047262191772, 1.7745800018310547, -1.0359805822372437, -9.00761890411377, 
437, 248801910, -134.84310913085938, -75.99506378173828, -171.24839782714844, 9.779336929321289, -0.5800572633743286, -1.519676685333252, 1.6270161867141724, -1.2425849437713623, -9.780425071716309, 
438, 248810243, -135.1625518798828, -76.08709716796875, -170.942626953125, 9.745595932006836, -0.5897086262702942, -1.5561723709106445, 1.5367777347564697, -1.1006567478179932, -10.647135734558105, 
439, 248818576, -135.4556121826172, -76.15424346923828, -170.6352081298828, 9.758173942565918, -0.5884221792221069, -1.5581854581832886, 1.3628438711166382, -1.239754557609558, -11.302947044372559, 
440, 248826909, -135.82632446289062, -76.25260925292969, -170.27809143066406, 9.771648406982422, -0.5972711443901062, -1.543261170387268, 1.4067593812942505, -1.3351291418075562, -12.087421417236328, 
441, 248835242, -136.1664276123047, -76.3280258178711, -169.92340087890625, 9.79059886932373, -0.5979665517807007, -1.5752639770507812, 1.269134283065796, -1.2451465129852295, -12.882437705993652, 
442, 248843575, -136.58322143554688, -76.43373107910156, -169.52169799804688, 9.766180992126465, -0.6105793714523315, -1.5702004432678223, 1.1773583889007568, -1.2718621492385864, -13.452302932739258, 
443, 248851908, -136.96878051757812, -76.51606750488281, -169.12249755859375, 9.795641899108887, -0.6019024848937988, -1.5352742671966553, 1.046251893043518, -1.2283819913864136, -14.259573936462402, 
444, 248860241, -137.436279296875, -76.62754821777344, -168.67137145996094, 9.806331634521484, -0.6062723398208618, -1.5557488203048706, 0.9905027151107788, -1.3300323486328125, -14.771157264709473, 
445, 248868574, -137.86599731445312, -76.7152099609375, -168.22769165039062, 9.798253059387207, -0.6027027368545532, -1.5456057786941528, 0.9872496128082275, -1.252677083015442, -15.480721473693848, 
446, 248876907, -138.38475036621094, -76.8321533203125, -167.72628784179688, 9.807482719421387, -0.6129652261734009, -1.5400512218475342, 0.9058475494384766, -1.3582334518432617, -16.051610946655273, 
447, 248885240, -138.8636016845703, -76.9228515625, -167.23464965820312, 9.808341026306152, -0.619010329246521, -1.5287843942642212, 0.7586938738822937, -1.4470895528793335, -16.56484603881836, 
448, 248893573, -139.4327850341797, -77.04302215576172, -166.68299865722656, 9.829809188842773, -0.6127144694328308, -1.540685772895813, 0.7135359048843384, -1.4234217405319214, -17.100540161132812, 
449, 248901906, -139.9539337158203, -77.13711547851562, -166.1485137939453, 9.81683349609375, -0.6175684928894043, -1.5616992712020874, 0.7435558438301086, -1.4282244443893433, -17.539813995361328, 
450, 248910239, -140.56968688964844, -77.25946807861328, -165.55120849609375, 9.822731971740723, -0.6144633889198303, -1.542955756187439, 0.6220930814743042, -1.4287368059158325, -17.978689193725586, 
451, 248918572, -141.1390380859375, -77.3549575805664, -164.96913146972656, 9.853096008300781, -0.6382831335067749, -1.56640625, 0.6060841083526611, -1.5704988241195679, -18.44200897216797, 
452, 248926905, -141.80709838867188, -77.4778060913086, -164.31996154785156, 9.827815055847168, -0.6406205296516418, -1.5658771991729736, 0.509083092212677, -1.5905035734176636, -18.817541122436523, 
453, 248935238, -142.4149627685547, -77.57376098632812, -163.69976806640625, 9.834681510925293, -0.6396761536598206, -1.5391318798065186, 0.5217620730400085, -1.5594077110290527, -19.05831527709961, 
454, 248943571, -143.12692260742188, -77.69534301757812, -163.00743103027344, 9.840981483459473, -0.6573875546455383, -1.5517784357070923, 0.4247097671031952, -1.6737241744995117, -19.348806381225586, 
455, 248951904, -143.77667236328125, -77.7918701171875, -162.3456268310547, 9.856181144714355, -0.638457715511322, -1.5423623323440552, 0.438541442155838, -1.5180408954620361, -19.730562210083008, 
456, 248960237, -144.53269958496094, -77.91236114501953, -161.60867309570312, 9.87543773651123, -0.6311371326446533, -1.5835208892822266, 0.41192829608917236, -1.6692932844161987, -19.898874282836914, 
457, 248968570, -145.22010803222656, -78.00628662109375, -160.91024780273438, 9.879157066345215, -0.6478866338729858, -1.5696024894714355, 0.29154133796691895, -1.6268759965896606, -20.06682777404785, 
458, 248976903, -146.01451110839844, -78.12500762939453, -160.1365966796875, 9.84869384765625, -0.6578821539878845, -1.5703434944152832, 0.3120839297771454, -1.566118836402893, -20.254987716674805, 
459, 248985236, -146.7351531982422, -78.2159652709961, -159.40420532226562, 9.869056701660156, -0.6514064073562622, -1.5831568241119385, 0.37063807249069214, -1.6798973083496094, -20.320714950561523, 
460, 248993569, -147.5680389404297, -78.32970428466797, -158.5917510986328, 9.895272254943848, -0.6766419410705566, -1.5303049087524414, 0.26179036498069763, -1.7245557308197021, -20.4115047454834, 
461, 249001902, -148.3191375732422, -78.41656494140625, -157.8294219970703, 9.906028747558594, -0.7018450498580933, -1.545302152633667, 0.3006087839603424, -1.7519375085830688, -20.42218780517578, 
462, 249010235, -149.18124389648438, -78.52558135986328, -156.98641967773438, 9.860654830932617, -0.6860570907592773, -1.5573031902313232, 0.2718952000141144, -1.6964186429977417, -20.429550170898438, 
463, 249018568, -149.95094299316406, -78.60860443115234, -156.20486450195312, 9.904532432556152, -0.6859458684921265, -1.5392247438430786, 0.4031425416469574, -1.6307178735733032, -20.335235595703125, 
464, 249026901, -150.8287811279297, -78.71187591552734, -155.34457397460938, 9.88619613647461, -0.7197864055633545, -1.53636634349823, 0.43060103058815, -1.6239559650421143, -20.136089324951172, 
465, 249035234, -151.61546325683594, -78.7893295288086, -154.54676818847656, 9.87951374053955, -0.7192612886428833, -1.530288815498352, 0.35462918877601624, -1.6467781066894531, -20.09894561767578, 
466, 249043567, -152.51284790039062, -78.8869400024414, -153.669189453125, 9.910246849060059, -0.7263957262039185, -1.537554383277893, 0.4931766390800476, -1.5778502225875854, -19.946081161499023, 
467, 249051900, -153.3054962158203, -78.95801544189453, -152.86483764648438, 9.891182899475098, -0.7203261852264404, -1.5652267932891846, 0.46523144841194153, -1.6630685329437256, -19.64124298095703, 
468, 249060233, -154.2093048095703, -79.04798126220703, -151.97950744628906, 9.900284767150879, -0.7185887694358826, -1.531066656112671, 0.5646148920059204, -1.6208053827285767, -19.40972137451172, 
469, 249068566, -155.00155639648438, -79.11204528808594, -151.17498779296875, 9.893972396850586, -0.7363005876541138, -1.5628674030303955, 0.6063531041145325, -1.7077016830444336, -19.063552856445312, 
470, 249076899, -155.89895629882812, -79.19407653808594, -150.2947540283203, 9.892796516418457, -0.7517832517623901, -1.5619608163833618, 0.7083362340927124, -1.6166428327560425, -18.660566329956055, 
471, 249085232, -156.68228149414062, -79.25154876708984, -149.49969482421875, 9.883991241455078, -0.7649796009063721, -1.5645830631256104, 0.6065196394920349, -1.6749536991119385, -18.343320846557617, 
472, 249093565, -157.57131958007812, -79.32563018798828, -148.62796020507812, 9.889820098876953, -0.7494468688964844, -1.5633238554000854, 0.7386379837989807, -1.648801565170288, -17.905675888061523, 
473, 249101898, -158.33346557617188, -79.37570190429688, -147.85411071777344, 9.89413833618164, -0.7514110803604126, -1.5434799194335938, 0.7084386348724365, -1.688529133796692, -17.395795822143555, 
474, 249110231, -159.2006072998047, -79.44116973876953, -147.0038604736328, 9.887458801269531, -0.7584043145179749, -1.5611783266067505, 0.882986843585968, -1.7328546047210693, -16.916797637939453, 
475, 249118564, -159.9345703125, -79.48363494873047, -146.25753784179688, 9.873906135559082, -0.7694809436798096, -1.55694580078125, 0.8751746416091919, -1.7680999040603638, -16.350749969482422, 
476, 249126897, -160.76866149902344, -79.54212188720703, -145.4406280517578, 9.876581192016602, -0.7834815382957458, -1.5387039184570312, 0.8579489588737488, -1.616937279701233, -15.801231384277344, 
477, 249135230, -161.46841430664062, -79.57866668701172, -144.7284698486328, 9.892702102661133, -0.7825330495834351, -1.5474094152450562, 0.9884021282196045, -1.6941128969192505, -15.288742065429688, 
478, 249143563, -162.2648162841797, -79.62802124023438, -143.9482879638672, 9.881857872009277, -0.7802285552024841, -1.5485365390777588, 1.1184970140457153, -1.8416764736175537, -14.60909366607666, 
479, 249151896, -162.9106903076172, -79.6573715209961, -143.28952026367188, 9.877488136291504, -0.7785859704017639, -1.5578967332839966, 1.184838056564331, -1.7246838808059692, -13.830794334411621, 
480, 249160229, -163.6516571044922, -79.70027923583984, -142.56329345703125, 9.900267601013184, -0.791642963886261, -1.5218459367752075, 1.3283032178878784, -1.753691554069519, -13.194982528686523, 
481, 249168562, -164.24517822265625, -79.72329711914062, -141.95668029785156, 9.873224258422852, -0.7866626977920532, -1.5339252948760986, 1.3323758840560913, -1.7748746871948242, -12.46730899810791, 
482, 249176895, -164.92710876464844, -79.76028442382812, -141.2885284423828, 9.86067008972168, -0.7921203374862671, -1.5697485208511353, 1.4335905313491821, -1.6859546899795532, -11.753785133361816, 
483, 249185228, -165.45997619628906, -79.7776870727539, -140.7416534423828, 9.888481140136719, -0.7925516366958618, -1.531751275062561, 1.5685006380081177, -1.8131294250488281, -11.00187873840332, 
484, 249193561, -166.0716094970703, -79.80860137939453, -140.14398193359375, 9.878317832946777, -0.7906573414802551, -1.5209667682647705, 1.6541035175323486, -1.6738649606704712, -10.134222030639648, 
485, 249201894, -166.53651428222656, -79.8220443725586, -139.66456604003906, 9.870867729187012, -0.808168888092041, -1.5272001028060913, 1.7788702249526978, -1.6917433738708496, -9.462077140808105, 
486, 249210227, -167.07525634765625, -79.8474349975586, -139.13986206054688, 9.885446548461914, -0.8068588972091675, -1.5246351957321167, 1.8337230682373047, -1.7149370908737183, -8.5004301071167, 
487, 249218560, -167.4607696533203, -79.85723876953125, -138.73904418945312, 9.871721267700195, -0.8038411736488342, -1.5443775653839111, 2.0432991981506348, -1.571753740310669, -7.718325614929199, 
488, 249226893, -167.92404174804688, -79.87791442871094, -138.28738403320312, 9.86545467376709, -0.7866808772087097, -1.5549018383026123, 2.2043612003326416, -1.741166114807129, -6.898720741271973, 
489, 249235226, -168.23086547851562, -79.8844985961914, -137.96490478515625, 9.864434242248535, -0.7877681255340576, -1.5040416717529297, 2.2410919666290283, -1.4903515577316284, -6.003605842590332, 
490, 249243559, -168.60794067382812, -79.90172576904297, -137.5995330810547, 9.886893272399902, -0.8139775991439819, -1.5216721296310425, 2.3718013763427734, -1.6420903205871582, -5.088383197784424, 
491, 249251892, -168.83180236816406, -79.90435791015625, -137.36058044433594, 9.866989135742188, -0.8075399398803711, -1.4861294031143188, 2.342409133911133, -1.5281453132629395, -4.175965785980225, 
492, 249260225, -169.11843872070312, -79.91936492919922, -137.08432006835938, 9.877306938171387, -0.8349906802177429, -1.5121867656707764, 2.553572654724121, -1.46303391456604, -3.2356927394866943, 
493, 249268558, -169.25538635253906, -79.91968536376953, -136.93031311035156, 9.868037223815918, -0.8277706503868103, -1.5309116840362549, 2.742682456970215, -1.4318100214004517, -2.363502264022827, 
494, 249276891, -169.4470672607422, -79.9320068359375, -136.74874877929688, 9.852272987365723, -0.8399797677993774, -1.512977123260498, 2.8522214889526367, -1.3643548488616943, -1.309489369392395, 
495, 249285224, -169.494384765625, -79.93083190917969, -136.68434143066406, 9.865272521972656, -0.8358564376831055, -1.475206971168518, 2.924607992172241, -1.2513962984085083, -0.47789761424064636, 
496, 249293557, -169.5943603515625, -79.94132995605469, -136.5931854248047, 9.858461380004883, -0.8370551466941833, -1.5040196180343628, 3.091203212738037, -1.224091649055481, 0.5329042077064514, 
497, 249301890, -169.5472412109375, -79.93733978271484, -136.6219482421875, 9.862993240356445, -0.8174765110015869, -1.4824724197387695, 3.250701904296875, -1.2300338745117188, 1.5095233917236328, 
498, 249310223, -169.54946899414062, -79.94568634033203, -136.62774658203125, 9.868358612060547, -0.8234325051307678, -1.5173816680908203, 3.336254119873047, -1.1108895540237427, 2.503202438354492, 
499, 249318556, -169.41323852539062, -79.94048309326172, -136.74490356445312, 9.851065635681152, -0.8260704874992371, -1.483578085899353, 3.5122883319854736, -1.0376070737838745, 3.3601396083831787, 
500, 249326889, -169.32420349121094, -79.94576263427734, -136.84092712402344, 9.868854522705078, -0.8078336119651794, -1.506906270980835, 3.5634140968322754, -1.1200850009918213, 4.358376979827881, 
501, 249335222, -169.09791564941406, -79.93819427490234, -137.0478057861328, 9.837342262268066, -0.8210391998291016, -1.4869767427444458, 3.7294065952301025, -0.952811062335968, 5.262034893035889, 
502, 249343555, -168.91885375976562, -79.9422607421875, -137.23426818847656, 9.86402702331543, -0.8088412880897522, -1.4967793226242065, 3.7891652584075928, -0.8978173732757568, 6.148031711578369, 
503, 249351888, -168.60397338867188, -79.93143463134766, -137.52938842773438, 9.876553535461426, -0.8210383653640747, -1.5099046230316162, 3.9379324913024902, -0.9489818215370178, 7.159614086151123, 
504, 249360221, -168.3317413330078, -79.93190002441406, -137.80743408203125, 9.850383758544922, -0.787398636341095, -1.5351996421813965, 4.017145156860352, -0.8983938097953796, 8.058252334594727, 
505, 249368554, -167.9348602294922, -79.91886138916016, -138.18431091308594, 9.854698181152344, -0.7999342679977417, -1.536497950553894, 4.125339031219482, -0.7912238240242004, 8.904828071594238, 
506, 249376887, -167.57855224609375, -79.91587829589844, -138.5442657470703, 9.869634628295898, -0.7932892441749573, -1.5320290327072144, 4.251976013183594, -0.8620215654373169, 9.780860900878906, 
507, 249385220, -167.10684204101562, -79.89847564697266, -138.99537658691406, 9.874724388122559, -0.8021950125694275, -1.5386180877685547, 4.341830730438232, -0.8515965342521667, 10.55925178527832, 
508, 249393553, -166.67333984375, -79.89112091064453, -139.43408203125, 9.875121116638184, -0.7984440326690674, -1.5309081077575684, 4.42106819152832, -0.9060394167900085, 11.412806510925293, 
509, 249401886, -166.1273956298828, -79.86845397949219, -139.95901489257812, 9.84441089630127, -0.790864109992981, -1.5362545251846313, 4.551240921020508, -0.9235342144966125, 12.243300437927246, 
510, 249410219, -165.61990356445312, -79.85693359375, -140.47042846679688, 9.874343872070312, -0.8033238053321838, -1.549157738685608, 4.629735946655273, -0.8418888449668884, 12.97821044921875, 
511, 249418552, -165.00628662109375, -79.83047485351562, -141.06190490722656, 9.884082794189453, -0.7814488410949707, -1.5489113330841064, 4.819267272949219, -0.7919281125068665, 13.761991500854492, 
512, 249426885, -164.42691040039062, -79.81307983398438, -141.64468383789062, 9.872556686401367, -0.774284303188324, -1.5624421834945679, 4.877105236053467, -0.9022744297981262, 14.57309341430664, 
513, 249435218, -163.75428771972656, -79.78022766113281, -142.295654296875, 9.876978874206543, -0.7867381572723389, -1.5698415040969849, 4.887337684631348, -0.8984450101852417, 15.242226600646973, 
514, 249443551, -163.11984252929688, -79.75677490234375, -142.93405151367188, 9.860368728637695, -0.7707752585411072, -1.5590020418167114, 4.905306816101074, -0.9666942954063416, 15.898964881896973, 
515, 249451884, -162.39590454101562, -79.71705627441406, -143.63563537597656, 9.859024047851562, -0.7778948545455933, -1.5487356185913086, 5.098232746124268, -1.0044752359390259, 16.591136932373047, 
516, 249460217, -161.70516967773438, -79.68781280517578, -144.3287353515625, 9.88597297668457, -0.7809182405471802, -1.5650664567947388, 5.18947172164917, -0.9235343337059021, 17.23935890197754, 
517, 249468550, -160.93629455566406, -79.64164733886719, -145.07472229003906, 9.8828706741333, -0.7700082063674927, -1.5665634870529175, 5.276712894439697, -1.0058841705322266, 17.844470977783203, 
518, 249476883, -160.20494079589844, -79.60481262207031, -145.81045532226562, 9.867195129394531, -0.7578654885292053, -1.548438549041748, 5.240494728088379, -1.0541925430297852, 18.401296615600586, 
519, 249485216, -159.3992156982422, -79.55155944824219, -146.5933074951172, 9.879120826721191, -0.7629720568656921, -1.5672985315322876, 5.381501197814941, -1.0360320806503296, 19.012401580810547, 
520, 249493549, -158.6294708251953, -79.50776672363281, -147.3646240234375, 9.891776084899902, -0.7444717884063721, -1.5257728099822998, 5.517576217651367, -1.0667051076889038, 19.511890411376953, 
521, 249501882, -157.79498291015625, -79.44825744628906, -148.17581176757812, 9.868536949157715, -0.7512301206588745, -1.5635603666305542, 5.52513313293457, -0.9399146437644958, 20.015750885009766, 
522, 249510215, -156.9996337890625, -79.39765167236328, -148.97325134277344, 9.895620346069336, -0.734711229801178, -1.51018226146698, 5.547929763793945, -1.054282307624817, 20.443151473999023, 
523, 249518548, -156.1547088623047, -79.33058166503906, -149.79421997070312, 9.880582809448242, -0.7368699312210083, -1.5577630996704102, 5.667267322540283, -1.069394826889038, 20.745298385620117, 
524, 249526881, -155.34495544433594, -79.27204132080078, -150.60476684570312, 9.898092269897461, -0.7287620902061462, -1.5435322523117065, 5.715114116668701, -1.2082750797271729, 21.23204231262207, 
525, 249535214, -154.49041748046875, -79.19831848144531, -151.43601989746094, 9.890417098999023, -0.7302238345146179, -1.5415027141571045, 5.661056041717529, -1.0283992290496826, 21.487279891967773, 
526, 249543547, -153.6770782470703, -79.13441467285156, -152.25181579589844, 9.882808685302734, -0.7078303694725037, -1.5241280794143677, 5.685619831085205, -1.076758861541748, 21.735736846923828, 
527, 249551880, -152.82704162597656, -79.05367279052734, -153.07843017578125, 9.856612205505371, -0.7163723111152649, -1.541214108467102, 5.716920852661133, -1.1233769655227661, 21.98529624938965, 
528, 249560213, -152.01220703125, -78.98348999023438, -153.8930206298828, 9.874019622802734, -0.7020242810249329, -1.5666319131851196, 5.94744873046875, -1.0887207984924316, 22.251121520996094, 
529, 249568546, -151.17031860351562, -78.89640045166016, -154.71047973632812, 9.885331153869629, -0.7005136013031006, -1.5469887256622314, 5.873629570007324, -1.1593137979507446, 22.390493392944336, 
530, 249576879, -150.3731231689453, -78.82073974609375, -155.51095581054688, 9.885039329528809, -0.6788793802261353, -1.553462266921997, 5.768047332763672, -1.130190372467041, 22.43119239807129, 
531, 249585212, -149.55174255371094, -78.72813415527344, -156.3087615966797, 9.88072681427002, -0.6871768832206726, -1.5091794729232788, 5.781545639038086, -1.2193278074264526, 22.568023681640625, 
532, 249593545, -148.77090454101562, -78.64742279052734, -157.0926971435547, 9.88016128540039, -0.6742656230926514, -1.53644859790802, 5.869248390197754, -1.155599594116211, 22.600605010986328, 
533, 249601878, -147.97314453125, -78.5510482788086, -157.86761474609375, 9.884207725524902, -0.6742866039276123, -1.5537128448486328, 5.712797164916992, -1.136850118637085, 22.586181640625, 
534, 249610211, -147.22193908691406, -78.4663314819336, -158.62179565429688, 9.868435859680176, -0.6540777683258057, -1.5903767347335815, 5.74230432510376, -1.2185081243515015, 22.486772537231445, 
535, 249618544, -146.4557342529297, -78.365478515625, -159.36502075195312, 9.862088203430176, -0.6739027500152588, -1.5811113119125366, 5.721249103546143, -1.2656896114349365, 22.482288360595703, 
536, 249626877, -145.7346954345703, -78.27651977539062, -160.0907745361328, 9.888927459716797, -0.6435705423355103, -1.5895105600357056, 5.661683559417725, -1.3550961017608643, 22.394062042236328, 
537, 249635210, -145.00436401367188, -78.17298126220703, -160.79832458496094, 9.856477737426758, -0.637442946434021, -1.5775141716003418, 5.668548107147217, -1.3189289569854736, 22.19821548461914, 
538, 249643543, -144.31817626953125, -78.08287048339844, -161.4872589111328, 9.853460311889648, -0.6440061330795288, -1.5622776746749878, 5.716318130493164, -1.2985655069351196, 21.97212028503418, 
539, 249651876, -143.63038635253906, -77.97831726074219, -162.15208435058594, 9.85439395904541, -0.6412093639373779, -1.5495997667312622, 5.643982410430908, -1.3610897064208984, 21.64204978942871, 
540, 249660209, -142.99143981933594, -77.88727569580078, -162.795654296875, 9.844626426696777, -0.6427063941955566, -1.5819776058197021, 5.574069499969482, -1.4598710536956787, 21.312793731689453, 
541, 249668542, -142.3435821533203, -77.7825698852539, -163.42062377929688, 9.821183204650879, -0.6411620378494263, -1.5412944555282593, 5.594125747680664, -1.3566200733184814, 21.07199478149414, 
542, 249676875, -141.74356079101562, -77.6926498413086, -164.02626037597656, 9.83012866973877, -0.6250877380371094, -1.5495636463165283, 5.478887557983398, -1.3891888856887817, 20.663345336914062, 
543, 249685208, -141.14756774902344, -77.58907318115234, -164.60110473632812, 9.838294982910156, -0.6086888313293457, -1.5502972602844238, 5.312766075134277, -1.4631626605987549, 20.173307418823242, 
544, 249693541, -140.5953369140625, -77.50077819824219, -165.16012573242188, 9.84421443939209, -0.5940806865692139, -1.5388261079788208, 5.206851005554199, -1.4847297668457031, 19.81578254699707, 
545, 249701874, -140.04144287109375, -77.3989486694336, -165.69378662109375, 9.826241493225098, -0.6115454435348511, -1.5412269830703735, 5.152202129364014, -1.4582316875457764, 19.386600494384766, 
546, 249710207, -139.53646850585938, -77.31346893310547, -166.20648193359375, 9.817241668701172, -0.6091749668121338, -1.5417566299438477, 5.1956706047058105, -1.5655555725097656, 18.813535690307617, 
547, 249718540, -139.03248596191406, -77.21551513671875, -166.6896209716797, 9.802887916564941, -0.6038485765457153, -1.5269641876220703, 5.123718738555908, -1.5213450193405151, 18.23598289489746, 
548, 249726873, -138.5754852294922, -77.13374328613281, -167.15428161621094, 9.798080444335938, -0.5902543067932129, -1.5646498203277588, 5.094211578369141, -1.6755428314208984, 17.725772857666016, 
549, 249735206, -138.12161254882812, -77.03901672363281, -167.58770751953125, 9.811124801635742, -0.600079357624054, -1.5439985990524292, 4.971135139465332, -1.7217252254486084, 17.125680923461914, 
550, 249743539, -137.7108917236328, -76.96224975585938, -168.00643920898438, 9.788723945617676, -0.5922006964683533, -1.554947853088379, 4.987835884094238, -1.7142460346221924, 16.541906356811523, 
551, 249751872, -137.30218505859375, -76.87388610839844, -168.39447021484375, 9.760895729064941, -0.6004541516304016, -1.5211710929870605, 4.896649360656738, -1.6579461097717285, 15.824810981750488, 
552, 249760205, -136.94520568847656, -76.80477905273438, -168.76034545898438, 9.772562026977539, -0.5879541635513306, -1.5296725034713745, 4.666991710662842, -1.7185746431350708, 15.002822875976562, 
553, 249768538, -136.58917236328125, -76.72298431396484, -169.09713745117188, 9.770048141479492, -0.5920345783233643, -1.5207828283309937, 4.600368976593018, -1.7751821279525757, 14.358906745910645, 
554, 249776871, -136.27561950683594, -76.66122436523438, -169.42153930664062, 9.780806541442871, -0.5828200578689575, -1.535599708557129, 4.414229393005371, -1.670266032218933, 13.671342849731445, 
555, 249785204, -135.96485900878906, -76.58717346191406, -169.71337890625, 9.778575897216797, -0.5898944735527039, -1.5540196895599365, 4.446772575378418, -1.7550621032714844, 12.895322799682617, 
556, 249793537, -135.6991424560547, -76.53359985351562, -169.989990234375, 9.771992683410645, -0.593400239944458, -1.5647754669189453, 4.306880474090576, -1.7212384939193726, 12.127241134643555, 
557, 249801870, -135.43675231933594, -76.46776580810547, -170.23451232910156, 9.757173538208008, -0.5997516512870789, -1.5639344453811646, 4.1904120445251465, -1.8142178058624268, 11.318391799926758, 
558, 249810203, -135.2152557373047, -76.4227523803711, -170.4683074951172, 9.73819351196289, -0.5902835130691528, -1.564339518547058, 4.101581573486328, -1.7192659378051758, 10.620583534240723, 
559, 249818536, -134.99913024902344, -76.3658218383789, -170.66717529296875, 9.760401725769043, -0.5852041244506836, -1.525253176689148, 3.9806320667266846, -1.8519991636276245, 9.702467918395996, 
560, 249826869, -134.83163452148438, -76.33041381835938, -170.84695434570312, 9.743810653686523, -0.5727658271789551, -1.5394831895828247, 3.8879849910736084, -1.8857840299606323, 8.805124282836914, 
561, 249835202, -134.6613006591797, -76.28373718261719, -171.00132751464844, 9.74113655090332, -0.584790825843811, -1.5397917032241821, 3.6896541118621826, -1.8030246496200562, 7.969766139984131, 
562, 249843535, -134.53680419921875, -76.25882720947266, -171.13963317871094, 9.737385749816895, -0.5774619579315186, -1.5501360893249512, 3.633737564086914, -1.8081984519958496, 7.144245147705078, 
563, 249851868, -134.41409301757812, -76.22127532958984, -171.24627685546875, 9.73481273651123, -0.5621195435523987, -1.5414600372314453, 3.559892177581787, -1.9587080478668213, 6.249950408935547, 
564, 249860201, -134.33619689941406, -76.2070541381836, -171.33944702148438, 9.735539436340332, -0.5699383616447449, -1.5310907363891602, 3.3874568939208984, -1.8145763874053955, 5.371944904327393, 
565, 249868534, -134.25816345214844, -76.18083953857422, -171.4027099609375, 9.727928161621094, -0.5746296644210815, -1.5464470386505127, 3.2604618072509766, -1.8798928260803223, 4.425730228424072, 
566, 249876867, -134.23277282714844, -76.1773681640625, -171.4445037841797, 9.73684024810791, -0.5669785737991333, -1.5424963235855103, 3.1527023315429688, -1.969568133354187, 3.464632511138916, 
567, 249885200, -134.20016479492188, -76.16099548339844, -171.46243286132812, 9.734075546264648, -0.5595216155052185, -1.526857852935791, 3.0991690158843994, -1.9855259656906128, 2.6780965328216553, 
568, 249893533, -134.2172393798828, -76.16838073730469, -171.4622344970703, 9.732671737670898, -0.5613774657249451, -1.5221519470214844, 2.898122549057007, -1.9049434661865234, 1.7482227087020874, 
569, 249901866, -134.22933959960938, -76.16397094726562, -171.43646240234375, 9.7259521484375, -0.560853898525238, -1.5012537240982056, 2.835521697998047, -1.8796367645263672, 0.7730888724327087, 
570, 249910199, -134.2913360595703, -76.1824951171875, -171.39181518554688, 9.723058700561523, -0.5646495223045349, -1.5218346118927002, 2.7637503147125244, -1.9034066200256348, -0.05280374363064766, 
571, 249918532, -134.35020446777344, -76.1884765625, -171.3195037841797, 9.72795295715332, -0.5763100981712341, -1.531629204750061, 2.657374858856201, -1.9667762517929077, -1.0471996068954468, 
572, 249926865, -134.45716857910156, -76.21949768066406, -171.232177734375, 9.7281494140625, -0.5801816582679749, -1.525091290473938, 2.47159481048584, -1.728179693222046, -1.9482828378677368, 
573, 249935198, -134.55435180664062, -76.23665618896484, -171.12306213378906, 9.721534729003906, -0.5594447255134583, -1.5196179151535034, 2.36301589012146, -1.7708529233932495, -2.736279010772705, 
574, 249943531, -134.70751953125, -76.27800750732422, -170.98919677734375, 9.735946655273438, -0.577063798904419, -1.5205166339874268, 2.311608076095581, -1.7559584379196167, -3.7026405334472656, 
575, 249951864, -134.85244750976562, -76.30558013916016, -170.8328857421875, 9.732943534851074, -0.5658581852912903, -1.5372209548950195, 2.1397109031677246, -1.8239258527755737, -4.552814960479736, 
576, 249960197, -135.0531768798828, -76.35736083984375, -170.65283203125, 9.744792938232422, -0.5736505389213562, -1.505298376083374, 2.10725736618042, -1.757405400276184, -5.467319965362549, 
577, 249968530, -135.2421417236328, -76.3965835571289, -170.4525146484375, 9.748656272888184, -0.5773027539253235, -1.512786626815796, 2.0101284980773926, -1.6548972129821777, -6.406952381134033, 
578, 249976863, -135.4861602783203, -76.4591293334961, -170.22982788085938, 9.754548072814941, -0.5744840502738953, -1.5237034559249878, 1.9269077777862549, -1.5926549434661865, -7.1600117683410645, 
579, 249985196, -135.7251739501953, -76.50714111328125, -169.9798126220703, 9.774452209472656, -0.5694726705551147, -1.5274500846862793, 1.8174325227737427, -1.7900893688201904, -8.112067222595215, 
580, 249993529, -136.02108764648438, -76.5790023803711, -169.706298828125, 9.765079498291016, -0.6049970984458923, -1.524020791053772, 1.6646181344985962, -1.6478792428970337, -8.868967056274414, 
581, 250001862, -136.30490112304688, -76.63690948486328, -169.41268920898438, 9.771041870117188, -0.5813882946968079, -1.5201997756958008, 1.552965521812439, -1.646188497543335, -9.763211250305176, 
582, 250010195, -136.6477813720703, -76.71761322021484, -169.0929412841797, 9.772939682006836, -0.5837464332580566, -1.4974230527877808, 1.3864731788635254, -1.5603296756744385, -10.415786743164062, 
583, 250018528, -136.97573852539062, -76.78347778320312, -168.75601196289062, 9.778219223022461, -0.5833646059036255, -1.5251195430755615, 1.353789210319519, -1.5779777765274048, -11.236491203308105, 
584, 250026861, -137.36863708496094, -76.87232208251953, -168.38743591308594, 9.795181274414062, -0.585885763168335, -1.5153049230575562, 1.265189528465271, -1.5431681871414185, -11.960580825805664, 
585, 250035194, -137.74232482910156, -76.94608306884766, -168.0051727294922, 9.78564739227295, -0.6015663743019104, -1.515072226524353, 1.1995147466659546, -1.485459327697754, -12.704086303710938, 
586, 250043527, -138.18670654296875, -77.04129791259766, -167.5863494873047, 9.790108680725098, -0.6089625954627991, -1.5130226612091064, 1.0642973184585571, -1.5739054679870605, -13.36449909210205, 
587, 250051860, -138.61073303222656, -77.12116241455078, -167.15420532226562, 9.78511905670166, -0.6040226817131042, -1.5067795515060425, 1.033739447593689, -1.5425280332565308, -14.091917991638184, 
588, 250060193, -139.1032257080078, -77.22274017333984, -166.68621826171875, 9.79930305480957, -0.6146227717399597, -1.5295734405517578, 0.9042722582817078, -1.4740480184555054, -14.659975051879883, 
589, 250068526, -139.5713653564453, -77.30867767333984, -166.2101287841797, 9.793336868286133, -0.6086206436157227, -1.532373309135437, 0.9244691133499146, -1.397423267364502, -15.326932907104492, 
590, 250076859, -140.10992431640625, -77.41544342041016, -165.69692993164062, 9.833292007446289, -0.6006891131401062, -1.4942234754562378, 0.8319504261016846, -1.338382363319397, -15.811657905578613, 
591, 250085192, -140.62103271484375, -77.5061264038086, -165.17941284179688, 9.827698707580566, -0.6240878701210022, -1.5499259233474731, 0.6743205189704895, -1.2394602298736572, -16.375171661376953, 
592, 250093525, -141.2108154296875, -77.6164779663086, -164.6140899658203, 9.836852073669434, -0.6109364628791809, -1.5253270864486694, 0.7314785718917847, -1.335654377937317, -16.90450096130371, 
593, 250101858, -141.77166748046875, -77.70977783203125, -164.04527282714844, 9.835591316223145, -0.6268602013587952, -1.5221121311187744, 0.7755094766616821, -1.340111255645752, -17.431488037109375, 
594, 250110191, -142.4103240966797, -77.82254028320312, -163.43238830566406, 9.841341972351074, -0.6202096939086914, -1.5216773748397827, 0.6372566819190979, -1.2993977069854736, -17.82962417602539, 
595, 250118524, -143.01438903808594, -77.91874694824219, -162.8216552734375, 9.839645385742188, -0.6297468543052673, -1.5424320697784424, 0.557417094707489, -1.1690208911895752, -18.287939071655273, 
596, 250126857, -143.70123291015625, -78.0340576171875, -162.16046142578125, 9.825031280517578, -0.6315761804580688, -1.5382322072982788, 0.5689179301261902, -1.1287813186645508, -18.730709075927734, 
597, 250135190, -144.34906005859375, -78.13114929199219, -161.5064697265625, 9.841712951660156, -0.6393389701843262, -1.517664909362793, 0.4602878987789154, -1.1196112632751465, -19.00075912475586, 
598, 250143523, -145.08050537109375, -78.2474136352539, -160.80108642578125, 9.841403007507324, -0.6420237421989441, -1.5186179876327515, 0.4460720419883728, -0.9562948942184448, -19.404800415039062, 
599, 250151856, -145.772216796875, -78.34466552734375, -160.10317993164062, 9.881851196289062, -0.6506255865097046, -1.546451449394226, 0.4229167401790619, -1.0591360330581665, -19.651103973388672, 
600, 250160189, -146.542236328125, -78.45841217041016, -159.35902404785156, 9.844273567199707, -0.6373753547668457, -1.528962254524231, 0.42435118556022644, -0.9776315689086914, -19.710865020751953, 
601, 250168522, -147.27027893066406, -78.55425262451172, -158.62518310546875, 9.859177589416504, -0.654539167881012, -1.5221147537231445, 0.36167314648628235, -0.9718427658081055, -20.018465042114258, 
602, 250176855, -148.08206176757812, -78.66658782958984, -157.8383331298828, 9.874689102172852, -0.6500040292739868, -1.5208550691604614, 0.3595215380191803, -0.8572446703910828, -20.142030715942383, 
603, 250185188, -148.84117126464844, -78.76057434082031, -157.07286071777344, 9.869783401489258, -0.67634117603302, -1.5237219333648682, 0.41012248396873474, -0.8368173837661743, -20.24357795715332, 
604, 250193521, -149.69334411621094, -78.86894989013672, -156.24771118164062, 9.902382850646973, -0.6777836680412292, -1.488606333732605, 0.31415867805480957, -0.894474983215332, -20.39006233215332, 
