sep=,
PacketCounter,SampleTimeFine,Euler_X,Euler_Y,Euler_Z,Acc_X,Acc_Y,Acc_Z,Gyr_X,Gyr_Y,Gyr_Z,
0, 348629228, -160.248046875, -80.27542877197266, -156.2926788330078, 0, 0, 0, 0, 0, 0, 
1, 348637561, -160.0417938232422, -80.25704956054688, -156.47232055664062, 9.711308479309082, -0.5464487671852112, -1.5756824016571045, 3.5022218227386475, -0.8370987772941589, 4.178539752960205, 
2, 348645894, -160.10064697265625, -80.22539520263672, -156.36326599121094, 9.687076568603516, -0.5414890050888062, -1.558424711227417, 3.3538384437561035, -0.9111239910125732, 2.8787710666656494, 
3, 348654227, -160.0143585205078, -80.21377563476562, -156.42396545410156, 9.672041893005371, -0.5521596074104309, -1.5684220790863037, 3.1696717739105225, -0.8966262340545654, 1.6428074836730957, 
4, 348662560, -160.15574645996094, -80.20838928222656, -156.25042724609375, 9.666296005249023, -0.5418294072151184, -1.5751185417175293, 2.9085350036621094, -0.8329493403434753, 0.3936523497104645, 
5, 348670893, -160.17710876464844, -80.20439910888672, -156.20477294921875, 9.689840316772461, -0.5550912022590637, -1.575982928276062, 2.8326399326324463, -0.7666084170341492, -0.7129978537559509, 
6, 348679226, -160.39207458496094, -80.20561981201172, -155.9716339111328, 9.677058219909668, -0.5356621146202087, -1.600638508796692, 2.689072370529175, -0.7956806421279907, -1.9489103555679321, 
7, 348687559, -160.5272674560547, -80.2082748413086, -155.81338500976562, 9.673373222351074, -0.5399162173271179, -1.5996897220611572, 2.4882049560546875, -0.7820794582366943, -3.150397300720215, 
8, 348695892, -160.85520935058594, -80.20704650878906, -155.47373962402344, 9.680915832519531, -0.5189391374588013, -1.5824058055877686, 2.3246841430664062, -0.8672212362289429, -4.358185291290283, 
9, 348704225, -161.10012817382812, -80.21570587158203, -155.20648193359375, 9.688200950622559, -0.5563181042671204, -1.5685012340545654, 2.2107772827148438, -0.79847252368927, -5.491077423095703, 
10, 348712558, -161.49107360839844, -80.2252197265625, -154.8253173828125, 9.686750411987305, -0.5369317531585693, -1.5623149871826172, 2.0749194622039795, -0.9105347990989685, -6.729883670806885, 
11, 348720891, -161.85057067871094, -80.23889923095703, -154.44363403320312, 9.685142517089844, -0.5474216938018799, -1.5907381772994995, 1.9984352588653564, -0.8834350109100342, -7.893820285797119, 
12, 348729224, -162.29615783691406, -80.25484466552734, -153.99606323242188, 9.692963600158691, -0.5396134853363037, -1.5734587907791138, 1.8350169658660889, -0.8317455649375916, -9.044644355773926, 
13, 348737557, -162.76113891601562, -80.2738265991211, -153.5106964111328, 9.713624954223633, -0.5483433604240417, -1.5835143327713013, 1.5995194911956787, -0.7896100282669067, -10.077281951904297, 
14, 348745890, -163.2657928466797, -80.29327392578125, -152.998291015625, 9.705092430114746, -0.5686575174331665, -1.5970969200134277, 1.445757269859314, -0.8958067297935486, -11.225900650024414, 
15, 348754223, -163.8411102294922, -80.31466674804688, -152.40362548828125, 9.724164962768555, -0.5560582876205444, -1.5927850008010864, 1.3068510293960571, -0.934561014175415, -12.256693840026855, 
16, 348762556, -164.39572143554688, -80.33502960205078, -151.84552001953125, 9.712371826171875, -0.5765488743782043, -1.5788952112197876, 1.1298567056655884, -0.7721923589706421, -13.339125633239746, 
17, 348770889, -165.076171875, -80.35969543457031, -151.14642333984375, 9.737157821655273, -0.5644581317901611, -1.5854557752609253, 1.0451761484146118, -0.8554130792617798, -14.346892356872559, 
18, 348779222, -165.68157958984375, -80.38005065917969, -150.55154418945312, 9.74758243560791, -0.5728127956390381, -1.5717613697052002, 0.9277349710464478, -0.9371481537818909, -15.328404426574707, 
19, 348787555, -166.46461486816406, -80.40567016601562, -149.7503204345703, 9.750693321228027, -0.5727331638336182, -1.5819343328475952, 0.829376220703125, -0.8813347220420837, -16.31545066833496, 
20, 348795888, -167.124267578125, -80.42768096923828, -149.1022186279297, 9.772198677062988, -0.5728790760040283, -1.6232502460479736, 0.6115527749061584, -0.8589479923248291, -17.2481689453125, 
21, 348804221, -168.00555419921875, -80.45319366455078, -148.2039794921875, 9.775785446166992, -0.5692206621170044, -1.5693145990371704, 0.5316619873046875, -0.8734200596809387, -18.139930725097656, 
22, 348812554, -168.72503662109375, -80.47309112548828, -147.49700927734375, 9.775785446166992, -0.5741609930992126, -1.5812690258026123, 0.43906649947166443, -0.9423478841781616, -19.05609893798828, 
23, 348820887, -169.70140075683594, -80.49606323242188, -146.5044403076172, 9.818350791931152, -0.5897600054740906, -1.580501675605774, 0.2972148656845093, -0.9851749539375305, -19.85759735107422, 
24, 348829220, -170.46530151367188, -80.51515197753906, -145.74832153320312, 9.805870056152344, -0.5867486596107483, -1.5613930225372314, 0.1310296654701233, -0.8822314739227295, -20.57620620727539, 
25, 348837553, -171.52432250976562, -80.53672790527344, -144.67343139648438, 9.807799339294434, -0.5774421095848083, -1.6118111610412598, 0.1429659128189087, -0.7677870988845825, -21.377214431762695, 
26, 348845886, -172.34080505371094, -80.55274200439453, -143.863525390625, 9.820222854614258, -0.5990030765533447, -1.5887576341629028, -0.016521189361810684, -0.9393768310546875, -22.165185928344727, 
27, 348854219, -173.4808807373047, -80.5687255859375, -142.70790100097656, 9.821557998657227, -0.6128677129745483, -1.6061253547668457, -0.010015169158577919, -0.9013652205467224, -22.808666229248047, 
28, 348862552, -174.33279418945312, -80.58149719238281, -141.8629913330078, 9.8336181640625, -0.6085725426673889, -1.597982406616211, -0.1404685378074646, -0.825009286403656, -23.50957679748535, 
29, 348870885, -175.546142578125, -80.5916748046875, -140.63392639160156, 9.859441757202148, -0.6248246431350708, -1.6116760969161987, -0.09720605611801147, -0.9140699505805969, -24.13968276977539, 
30, 348879218, -176.42308044433594, -80.59790802001953, -139.76150512695312, 9.850724220275879, -0.6398152112960815, -1.6162208318710327, -0.28790414333343506, -1.0055640935897827, -24.600513458251953, 
31, 348887551, -177.682373046875, -80.60021209716797, -138.48812866210938, 9.862712860107422, -0.618152379989624, -1.584645390510559, -0.3589068651199341, -1.0072290897369385, -24.94571876525879, 
32, 348895884, -178.5715789794922, -80.60259246826172, -137.6032257080078, 9.881755828857422, -0.6308204531669617, -1.6075834035873413, -0.45621538162231445, -0.8236261606216431, -25.477134704589844, 
33, 348904217, -179.87911987304688, -80.59874725341797, -136.2820587158203, 9.863557815551758, -0.624135434627533, -1.5992885828018188, -0.4899750351905823, -0.8150199055671692, -25.888349533081055, 
34, 348912550, 179.2246551513672, -80.59435272216797, -135.39111328125, 9.883065223693848, -0.6333349943161011, -1.6020830869674683, -0.4781668186187744, -0.9606112837791443, -26.220409393310547, 
35, 348920883, 177.88735961914062, -80.5813217163086, -134.0402374267578, 9.879439353942871, -0.6487579345703125, -1.590126633644104, -0.5527299046516418, -0.9005200862884521, -26.548376083374023, 
36, 348929216, 176.99227905273438, -80.57145690917969, -133.14442443847656, 9.897802352905273, -0.6372402310371399, -1.6554170846939087, -0.548785388469696, -0.9362265467643738, -26.832056045532227, 
37, 348937549, 175.64805603027344, -80.54873657226562, -131.78668212890625, 9.900703430175781, -0.633137047290802, -1.6346006393432617, -0.5807263255119324, -1.0031566619873047, -26.85154914855957, 
38, 348945882, 174.76861572265625, -80.53136444091797, -130.90487670898438, 9.914721488952637, -0.6537267565727234, -1.6228327751159668, -0.48723432421684265, -1.0653223991394043, -27.17656898498535, 
39, 348954215, 173.42401123046875, -80.4991226196289, -129.54696655273438, 9.947035789489746, -0.692742645740509, -1.6147449016571045, -0.6349260807037354, -1.0970840454101562, -27.117372512817383, 
40, 348962548, 172.58282470703125, -80.47634887695312, -128.70413208007812, 9.954009056091309, -0.6859953999519348, -1.606978416442871, -0.530957818031311, -1.1079188585281372, -27.139427185058594, 
41, 348970881, 171.25347900390625, -80.43548583984375, -127.36138153076172, 9.926858901977539, -0.7077743411064148, -1.58780038356781, -0.6261916160583496, -1.1022838354110718, -27.152925491333008, 
42, 348979214, 170.45713806152344, -80.40904235839844, -126.56721496582031, 9.939668655395508, -0.7229151129722595, -1.600008249282837, -0.5363368391990662, -1.0764132738113403, -26.97844123840332, 
43, 348987547, 169.16505432128906, -80.36051177978516, -125.2608871459961, 9.917630195617676, -0.6972407102584839, -1.610541582107544, -0.49002620577812195, -1.104921817779541, -26.81678581237793, 
44, 348995880, 168.41555786132812, -80.33096313476562, -124.50804138183594, 9.932158470153809, -0.7253473997116089, -1.6006269454956055, -0.4544224143028259, -1.0177823305130005, -26.760692596435547, 
45, 349004213, 167.16299438476562, -80.27519989013672, -123.24076843261719, 9.926247596740723, -0.7134255766868591, -1.616589069366455, -0.40547358989715576, -1.1210078001022339, -26.46917724609375, 
46, 349012546, 166.47756958007812, -80.2419662475586, -122.55223846435547, 9.932087898254395, -0.724631130695343, -1.6050831079483032, -0.3597777783870697, -1.1898586750030518, -26.1827335357666, 
47, 349020879, 165.2784423828125, -80.18048095703125, -121.3383560180664, 9.924850463867188, -0.7341331839561462, -1.6173123121261597, -0.3476109802722931, -1.1173702478408813, -25.840961456298828, 
48, 349029212, 164.6634521484375, -80.14627075195312, -120.71927642822266, 9.925017356872559, -0.7415730357170105, -1.6039689779281616, -0.2770437002182007, -1.1740291118621826, -25.360923767089844, 
49, 349037545, 163.53274536132812, -80.08003997802734, -119.5735855102539, 9.936898231506348, -0.7537435293197632, -1.5870212316513062, -0.23439598083496094, -1.1715444326400757, -24.90719223022461, 
50, 349045878, 162.9913787841797, -80.0453109741211, -119.02386474609375, 9.932991981506348, -0.7595929503440857, -1.617714762687683, -0.1233069971203804, -1.2700055837631226, -24.44019317626953, 
51, 349054211, 161.93405151367188, -79.97567749023438, -117.95172882080078, 9.930829048156738, -0.7620076537132263, -1.6063801050186157, -0.16733789443969727, -1.237526774406433, -23.82683563232422, 
52, 349062544, 161.4694366455078, -79.9426498413086, -117.4773178100586, 9.925832748413086, -0.7882055640220642, -1.63139808177948, -0.12691859900951385, -1.1934959888458252, -23.28598976135254, 
53, 349070877, 160.49208068847656, -79.87226104736328, -116.48429107666016, 9.91715145111084, -0.7970291972160339, -1.6143851280212402, 0.03687170892953873, -1.1915748119354248, -22.53013801574707, 
54, 349079210, 160.1154327392578, -79.84181213378906, -116.09425354003906, 9.896097183227539, -0.7976719737052917, -1.6138473749160767, 0.09358164668083191, -1.2148836851119995, -21.873823165893555, 
55, 349087543, 159.21885681152344, -79.77076721191406, -115.18164825439453, 9.926634788513184, -0.784951388835907, -1.6175010204315186, 0.19985514879226685, -1.2625517845153809, -21.178035736083984, 
56, 349095876, 158.92807006835938, -79.74351501464844, -114.87380981445312, 9.917542457580566, -0.7805901765823364, -1.6098402738571167, 0.3710607588291168, -1.292059302330017, -20.40184783935547, 
57, 349104209, 158.12110900878906, -79.6736831665039, -114.04950714111328, 9.901769638061523, -0.7841306328773499, -1.6259262561798096, 0.495161771774292, -1.3243589401245117, -19.55793571472168, 
58, 349112542, 157.92098999023438, -79.65184020996094, -113.83354949951172, 9.902080535888672, -0.795640766620636, -1.6090517044067383, 0.5596071481704712, -1.2518962621688843, -18.61858367919922, 
59, 349120875, 157.20140075683594, -79.58491516113281, -113.09550476074219, 9.90579605102539, -0.8061448335647583, -1.5903992652893066, 0.7696952223777771, -1.3369865417480469, -17.87136459350586, 
60, 349129208, 157.08999633789062, -79.56748962402344, -112.96839904785156, 9.908086776733398, -0.8198471665382385, -1.5608184337615967, 0.8258671760559082, -1.4141877889633179, -16.873432159423828, 
61, 349137541, 156.4627227783203, -79.50506591796875, -112.32184600830078, 9.916899681091309, -0.8303456902503967, -1.5532724857330322, 1.026093602180481, -1.3343738317489624, -15.963716506958008, 
62, 349145874, 156.44004821777344, -79.49674224853516, -112.27005767822266, 9.910430908203125, -0.817127525806427, -1.5676429271697998, 1.1701737642288208, -1.1985929012298584, -14.8761625289917, 
63, 349154207, 155.9057159423828, -79.44147491455078, -111.71575164794922, 9.862022399902344, -0.8411840796470642, -1.5115770101547241, 1.2754484415054321, -1.1596847772598267, -13.866731643676758, 
64, 349162540, 155.9788818359375, -79.4420166015625, -111.76880645751953, 9.909961700439453, -0.8375967144966125, -1.5462695360183716, 1.409256935119629, -1.1370673179626465, -12.65153694152832, 
65, 349170873, 155.5455780029297, -79.39414978027344, -111.31623077392578, 9.868890762329102, -0.8348993062973022, -1.554563283920288, 1.3879202604293823, -1.1517953872680664, -11.527304649353027, 
66, 349179206, 155.70852661132812, -79.40318298339844, -111.44918823242188, 9.870463371276855, -0.8432517051696777, -1.5264438390731812, 1.6236481666564941, -1.0769250392913818, -10.509804725646973, 
67, 349187539, 155.36878967285156, -79.36322021484375, -111.08855438232422, 9.892346382141113, -0.8557240962982178, -1.54233717918396, 1.7651668787002563, -1.0662695169448853, -9.323609352111816, 
68, 349195872, 155.62686157226562, -79.38268280029297, -111.32109832763672, 9.867034912109375, -0.8554115295410156, -1.5779627561569214, 1.8988984823226929, -0.8799513578414917, -8.13638687133789, 
69, 349204205, 155.38482666015625, -79.35157012939453, -111.05674743652344, 9.8673677444458, -0.8523250818252563, -1.5569936037063599, 2.129913330078125, -0.9749290347099304, -6.964536666870117, 
70, 349212538, 155.73899841308594, -79.37936401367188, -111.37893676757812, 9.853796005249023, -0.8481295108795166, -1.5578304529190063, 2.244178533554077, -0.8541579842567444, -5.824344635009766, 
71, 349220871, 155.58897399902344, -79.35686492919922, -111.20587921142578, 9.871755599975586, -0.8790899515151978, -1.5658220052719116, 2.4022693634033203, -0.8842034935951233, -4.704874038696289, 
72, 349229204, 156.04464721679688, -79.39141845703125, -111.62896728515625, 9.870399475097656, -0.8629522919654846, -1.5467734336853027, 2.5333375930786133, -0.9928334355354309, -3.4432449340820312, 
73, 349237537, 155.99830627441406, -79.37759399414062, -111.55888366699219, 9.859687805175781, -0.8634408116340637, -1.5806163549423218, 2.6903014183044434, -0.9016979932785034, -2.2009286880493164, 
74, 349245870, 156.55555725097656, -79.42095184326172, -112.08157348632812, 9.846039772033691, -0.8674713373184204, -1.5649586915969849, 2.8646318912506104, -0.8598442077636719, -0.9682436585426331, 
75, 349254203, 156.61509704589844, -79.41571044921875, -112.1161117553711, 9.864604949951172, -0.8458260893821716, -1.5498137474060059, 3.062732458114624, -0.879490315914154, 0.33043643832206726, 
76, 349262536, 157.27772521972656, -79.46659088134766, -112.74349212646484, 9.855608940124512, -0.8509410619735718, -1.5522019863128662, 3.266186237335205, -0.7740365862846375, 1.5247000455856323, 
77, 349270869, 157.44163513183594, -79.4686050415039, -112.8813247680664, 9.832959175109863, -0.8686119914054871, -1.5728815793991089, 3.395564079284668, -0.9557440280914307, 2.7491118907928467, 
78, 349279202, 158.21405029296875, -79.52516174316406, -113.61870574951172, 9.863348007202148, -0.848092257976532, -1.5688259601593018, 3.4615204334259033, -0.7899941802024841, 4.048829078674316, 
79, 349287535, 158.48379516601562, -79.53484344482422, -113.86209869384766, 9.860939979553223, -0.8354100584983826, -1.577201008796692, 3.636491298675537, -0.8903507590293884, 5.218042373657227, 
80, 349295868, 159.3625030517578, -79.59596252441406, -114.70401000976562, 9.85125732421875, -0.8459089994430542, -1.554005742073059, 3.8747808933258057, -0.7432739734649658, 6.403008937835693, 
81, 349304201, 159.7359619140625, -79.61253356933594, -115.05030059814453, 9.87375259399414, -0.8304965496063232, -1.5479731559753418, 3.9296977519989014, -0.7644312977790833, 7.567200660705566, 
82, 349312534, 160.72988891601562, -79.67550659179688, -116.00758361816406, 9.85739803314209, -0.8621737360954285, -1.5316914319992065, 4.082793235778809, -0.888096809387207, 8.849833488464355, 
83, 349320867, 161.2196807861328, -79.69597625732422, -116.469482421875, 9.865614891052246, -0.8388204574584961, -1.5936707258224487, 4.226233959197998, -0.9227785468101501, 10.016510963439941, 
84, 349329200, 162.32920837402344, -79.76020812988281, -117.52557373046875, 9.864861488342285, -0.8561517596244812, -1.5541170835494995, 4.494875431060791, -0.8742138147354126, 11.229113578796387, 
85, 349337533, 162.9318084716797, -79.78423309326172, -118.09951782226562, 9.869234085083008, -0.8436713814735413, -1.5646412372589111, 4.509885787963867, -0.9076662063598633, 12.356654167175293, 
86, 349345866, 164.15296936035156, -79.84727478027344, -119.2824935913086, 9.886311531066895, -0.8547937273979187, -1.5785419940948486, 4.689902305603027, -0.8865599632263184, 13.467595100402832, 
87, 349354199, 164.86727905273438, -79.87281036376953, -119.96681213378906, 9.877226829528809, -0.866043210029602, -1.5757105350494385, 4.856523513793945, -0.9241361021995544, 14.559223175048828, 
88, 349362532, 166.20285034179688, -79.93241119384766, -121.26327514648438, 9.87267780303955, -0.8349924087524414, -1.5518572330474854, 4.992484092712402, -0.9242386817932129, 15.670087814331055, 
89, 349370865, 167.03334045410156, -79.9583511352539, -122.06299591064453, 9.887295722961426, -0.8365857601165771, -1.5550434589385986, 5.145247936248779, -0.8599724769592285, 16.817731857299805, 
90, 349379198, 168.4736328125, -80.01286315917969, -123.46440124511719, 9.875838279724121, -0.8053175806999207, -1.5915814638137817, 5.161564350128174, -0.8399422764778137, 17.690309524536133, 
91, 349387531, 169.404541015625, -80.03500366210938, -124.36442565917969, 9.892333030700684, -0.811747133731842, -1.6076585054397583, 5.310818672180176, -1.006024956703186, 18.65576171875, 
92, 349395864, 170.94622802734375, -80.0802001953125, -125.84754943847656, 9.87523078918457, -0.8166638016700745, -1.6106617450714111, 5.336253643035889, -0.9854565858840942, 19.611581802368164, 
93, 349404197, 171.97903442382812, -80.09748077392578, -126.84925079345703, 9.895272254943848, -0.799389123916626, -1.6220554113388062, 5.491527557373047, -1.0345849990844727, 20.540691375732422, 
94, 349412530, 173.61822509765625, -80.13153076171875, -128.42642211914062, 9.8924560546875, -0.800890326499939, -1.5980485677719116, 5.700463771820068, -1.0960336923599243, 21.48903465270996, 
95, 349420863, 174.743896484375, -80.14033508300781, -129.5189208984375, 9.901538848876953, -0.8032864928245544, -1.6329662799835205, 5.879302024841309, -1.2461074590682983, 22.210073471069336, 
96, 349429196, 176.45681762695312, -80.16035461425781, -131.1697998046875, 9.905768394470215, -0.7936944365501404, -1.6334789991378784, 5.898205757141113, -1.2315585613250732, 23.020408630371094, 
97, 349437529, 177.6657257080078, -80.16109466552734, -132.34608459472656, 9.923495292663574, -0.7720595598220825, -1.612555742263794, 5.942083835601807, -1.167318344116211, 23.841245651245117, 
98, 349445862, 179.4390411376953, -80.16641235351562, -134.05599975585938, 9.91353702545166, -0.7812849283218384, -1.6032761335372925, 6.073611736297607, -1.2380646467208862, 24.457624435424805, 
99, 349454195, -179.2945098876953, -80.15486145019531, -135.2895965576172, 9.920499801635742, -0.7531507015228271, -1.6266608238220215, 6.070718288421631, -1.3718479871749878, 25.033178329467773, 
100, 349462528, -177.47921752929688, -80.14232635498047, -137.04090881347656, 9.90773868560791, -0.7865510582923889, -1.6170237064361572, 6.14799690246582, -1.4541980028152466, 25.753427505493164, 
101, 349470861, -176.15826416015625, -80.11771392822266, -138.32855224609375, 9.917608261108398, -0.7774091362953186, -1.6036124229431152, 6.234341621398926, -1.4871121644973755, 26.329898834228516, 
102, 349479194, -174.32164001464844, -80.08695983886719, -140.09767150878906, 9.928751945495605, -0.749500036239624, -1.6093162298202515, 6.425296306610107, -1.5792210102081299, 26.83568000793457, 
103, 349487527, -172.9701385498047, -80.04823303222656, -141.41482543945312, 9.92941951751709, -0.7253352999687195, -1.6185747385025024, 6.418457984924316, -1.631576657295227, 27.321147918701172, 
104, 349495860, -171.13356018066406, -79.9985580444336, -143.186767578125, 9.9287748336792, -0.7453064322471619, -1.6521918773651123, 6.4646406173706055, -1.6942805051803589, 27.796497344970703, 
105, 349504193, -169.77175903320312, -79.9447250366211, -144.51409912109375, 9.924300193786621, -0.7166208028793335, -1.6325790882110596, 6.504548072814941, -1.7908976078033447, 28.119831085205078, 
106, 349512526, -167.95826721191406, -79.8776626586914, -146.2594451904297, 9.941142082214355, -0.7181820273399353, -1.6251559257507324, 6.565509796142578, -1.6655668020248413, 28.49827766418457, 
107, 349520859, -166.60153198242188, -79.81082153320312, -147.58131408691406, 9.925365447998047, -0.7188766002655029, -1.5952162742614746, 6.599012851715088, -1.6802181005477905, 28.731698989868164, 
108, 349529192, -164.8365020751953, -79.72498321533203, -149.2798614501953, 9.926960945129395, -0.7180052995681763, -1.6134454011917114, 6.531698703765869, -1.8686623573303223, 28.946269989013672, 
109, 349537525, -163.507568359375, -79.64288330078125, -150.5741729736328, 9.917696952819824, -0.7057174444198608, -1.5863289833068848, 6.5840535163879395, -1.914870262145996, 29.117881774902344, 
110, 349545858, -161.80374145507812, -79.54033660888672, -152.20947265625, 9.92149543762207, -0.7030174136161804, -1.595841884613037, 6.6964240074157715, -1.9545981884002686, 29.24787712097168, 
111, 349554191, -160.5145721435547, -79.4460220336914, -153.46310424804688, 9.9279203414917, -0.6903517246246338, -1.627834439277649, 6.699984073638916, -1.8758342266082764, 29.276670455932617, 
112, 349562524, -158.89419555664062, -79.32901000976562, -155.01512145996094, 9.911409378051758, -0.6630983352661133, -1.6692352294921875, 6.564177513122559, -2.0106678009033203, 29.204614639282227, 
113, 349570857, -157.66384887695312, -79.22161865234375, -156.21031188964844, 9.910737991333008, -0.6520862579345703, -1.640900731086731, 6.625216960906982, -2.1272640228271484, 29.215660095214844, 
114, 349579190, -156.13580322265625, -79.09093475341797, -157.67013549804688, 9.889235496520996, -0.640112042427063, -1.6508346796035767, 6.534439563751221, -2.1768274307250977, 29.049955368041992, 
115, 349587523, -154.97415161132812, -78.9725570678711, -158.79678344726562, 9.887699127197266, -0.6442594528198242, -1.642316460609436, 6.572937965393066, -2.3134026527404785, 28.934078216552734, 
116, 349595856, -153.5479278564453, -78.83123016357422, -160.15306091308594, 9.888266563415527, -0.649776816368103, -1.6320827007293701, 6.536155700683594, -2.3053083419799805, 28.62750244140625, 
117, 349604189, -152.46273803710938, -78.70476531982422, -161.20399475097656, 9.880148887634277, -0.6282036900520325, -1.6339250802993774, 6.423990726470947, -2.3974688053131104, 28.3996639251709, 
118, 349612522, -151.14276123046875, -78.5550765991211, -162.45498657226562, 9.857199668884277, -0.6282718181610107, -1.6199501752853394, 6.515536308288574, -2.452410936355591, 28.00971031188965, 
119, 349620855, -150.13917541503906, -78.42267608642578, -163.4237823486328, 9.889226913452148, -0.6374349594116211, -1.6307259798049927, 6.393764972686768, -2.5085315704345703, 27.632335662841797, 
120, 349629188, -148.9250946044922, -78.2670669555664, -164.56967163085938, 9.868941307067871, -0.611656904220581, -1.5668408870697021, 6.388463973999023, -2.5688281059265137, 27.262033462524414, 
121, 349637521, -148.00401306152344, -78.13066864013672, -165.456787109375, 9.866293907165527, -0.6273914575576782, -1.5950098037719727, 6.201632499694824, -2.6016905307769775, 26.727893829345703, 
122, 349645854, -146.89553833007812, -77.9737548828125, -166.4978790283203, 9.847814559936523, -0.6185797452926636, -1.578060269355774, 6.134408473968506, -2.5007450580596924, 26.22205352783203, 
123, 349654187, -146.0499267578125, -77.83609771728516, -167.3097686767578, 9.825430870056152, -0.6156670451164246, -1.5863410234451294, 6.087060451507568, -2.527076244354248, 25.737186431884766, 
124, 349662520, -145.0452117919922, -77.67848205566406, -168.24609375, 9.834099769592285, -0.6155489087104797, -1.608184576034546, 6.064289093017578, -2.6331450939178467, 25.07208824157715, 
125, 349670853, -144.28358459472656, -77.54142761230469, -168.9739227294922, 9.818659782409668, -0.5935264229774475, -1.5682334899902344, 5.959346294403076, -2.6094512939453125, 24.386926651000977, 
126, 349679186, -143.37876892089844, -77.3859634399414, -169.81288146972656, 9.818570137023926, -0.5823672413825989, -1.5886621475219727, 5.776987075805664, -2.670118808746338, 23.764183044433594, 
127, 349687519, -142.69607543945312, -77.2513656616211, -170.46275329589844, 9.806502342224121, -0.576737105846405, -1.588355302810669, 5.698159217834473, -2.6508185863494873, 22.975662231445312, 
128, 349695852, -141.8830108642578, -77.10166931152344, -171.21168518066406, 9.781670570373535, -0.5610494017601013, -1.5935710668563843, 5.609968662261963, -2.5147812366485596, 22.26463508605957, 
129, 349704185, -141.27296447753906, -76.97260284423828, -171.78919982910156, 9.806380271911621, -0.557165801525116, -1.6067609786987305, 5.522802829742432, -2.509965419769287, 21.376739501953125, 
130, 349712518, -140.55221557617188, -76.83049774169922, -172.44662475585938, 9.797368049621582, -0.5705632567405701, -1.5886112451553345, 5.434267044067383, -2.4616315364837646, 20.527179718017578, 
131, 349720851, -140.018798828125, -76.70709228515625, -172.94830322265625, 9.797786712646484, -0.556860089302063, -1.5685900449752808, 5.252751350402832, -2.6278164386749268, 19.6307430267334, 
132, 349729184, -139.3859100341797, -76.57305908203125, -173.51828002929688, 9.7754545211792, -0.5672138929367065, -1.5759233236312866, 5.166994571685791, -2.521209955215454, 18.763113021850586, 
133, 349737517, -138.9188232421875, -76.4574966430664, -173.95391845703125, 9.768445014953613, -0.5536297559738159, -1.5720995664596558, 5.048862457275391, -2.563319683074951, 17.859210968017578, 
134, 349745850, -138.36837768554688, -76.33361053466797, -174.444091796875, 9.73189926147461, -0.5553489327430725, -1.5756173133850098, 4.839515686035156, -2.5023317337036133, 16.878311157226562, 
135, 349754183, -137.97259521484375, -76.22866821289062, -174.8096466064453, 9.736082077026367, -0.5409793853759766, -1.5775365829467773, 4.71035623550415, -2.49001145362854, 15.708984375, 
136, 349762516, -137.50526428222656, -76.11698913574219, -175.21728515625, 9.742229461669922, -0.560678243637085, -1.562774658203125, 4.64693546295166, -2.5425078868865967, 14.7012939453125, 
137, 349770849, -137.16871643066406, -76.02301788330078, -175.52413940429688, 9.731390953063965, -0.5480377078056335, -1.5841007232666016, 4.474244117736816, -2.329627752304077, 13.713683128356934, 
138, 349779182, -136.77622985839844, -75.9252700805664, -175.85813903808594, 9.723273277282715, -0.5465018153190613, -1.575312852859497, 4.33107328414917, -2.4367082118988037, 12.515335083007812, 
139, 349787515, -136.5037078857422, -75.84294891357422, -176.10191345214844, 9.70964241027832, -0.5648646354675293, -1.5559215545654297, 4.1504411697387695, -2.332458257675171, 11.519579887390137, 
140, 349795848, -136.1783447265625, -75.75991821289062, -176.3715057373047, 9.733699798583984, -0.5295956134796143, -1.546328067779541, 3.9815282821655273, -2.2400290966033936, 10.359883308410645, 
141, 349804181, -135.96641540527344, -75.6904067993164, -176.5552978515625, 9.710746765136719, -0.529282808303833, -1.551241159439087, 3.873858690261841, -2.2864034175872803, 9.249390602111816, 
142, 349812514, -135.70989990234375, -75.6225814819336, -176.75735473632812, 9.679255485534668, -0.5418645143508911, -1.5291926860809326, 3.7237086296081543, -2.1842541694641113, 8.051285743713379, 
143, 349820847, -135.5565948486328, -75.5677261352539, -176.8836669921875, 9.702969551086426, -0.5326963067054749, -1.5211820602416992, 3.525031328201294, -2.123049020767212, 6.842177391052246, 
144, 349829180, -135.36366271972656, -75.51648712158203, -177.02435302734375, 9.713905334472656, -0.5342034697532654, -1.5579403638839722, 3.3923747539520264, -1.9884971380233765, 5.703367710113525, 
145, 349837513, -135.2666015625, -75.47627258300781, -177.094970703125, 9.690332412719727, -0.5358337163925171, -1.534258484840393, 3.2504467964172363, -1.9909049272537231, 4.439459800720215, 
146, 349845846, -135.140869140625, -75.44119262695312, -177.16944885253906, 9.697189331054688, -0.5415955185890198, -1.5296977758407593, 3.0723507404327393, -1.9867810010910034, 3.267838716506958, 
147, 349854179, -135.09548950195312, -75.4150161743164, -177.189697265625, 9.699183464050293, -0.5240925550460815, -1.528290867805481, 2.8976359367370605, -1.8486688137054443, 2.1869945526123047, 
148, 349862512, -135.03106689453125, -75.39737701416016, -177.20437622070312, 9.715916633605957, -0.5430846214294434, -1.5467588901519775, 2.6562986373901367, -1.7727227210998535, 0.83699631690979, 
149, 349870845, -135.04344177246094, -75.38629913330078, -177.16754150390625, 9.709637641906738, -0.5152176022529602, -1.532480239868164, 2.587754964828491, -1.784838318824768, -0.31148192286491394, 
150, 349879178, -135.03843688964844, -75.38603973388672, -177.12374877929688, 9.659098625183105, -0.5386708378791809, -1.534699559211731, 2.4620018005371094, -1.5799628496170044, -1.615310549736023, 
151, 349887511, -135.10499572753906, -75.38993835449219, -177.034423828125, 9.7181396484375, -0.5379952192306519, -1.5702544450759888, 2.176966428756714, -1.6366468667984009, -2.7074496746063232, 
152, 349895844, -135.16265869140625, -75.40528869628906, -176.9299774169922, 9.71777629852295, -0.5346786379814148, -1.5280802249908447, 2.041736364364624, -1.5618921518325806, -3.964200019836426, 
153, 349904177, -135.28160095214844, -75.4241943359375, -176.78819274902344, 9.678849220275879, -0.5370494723320007, -1.5353978872299194, 1.9826184511184692, -1.4679518938064575, -5.101587295532227, 
154, 349912510, -135.3941650390625, -75.4557113647461, -176.6290283203125, 9.732977867126465, -0.5466569066047668, -1.550986409187317, 1.907094955444336, -1.3627029657363892, -6.242317199707031, 
155, 349920843, -135.5609130859375, -75.48859405517578, -176.43942260742188, 9.727044105529785, -0.5649468302726746, -1.5505707263946533, 1.8003736734390259, -1.2494369745254517, -7.2990593910217285, 
156, 349929176, -135.73069763183594, -75.53598022460938, -176.22494506835938, 9.732768058776855, -0.5821710824966431, -1.5357615947723389, 1.5756341218948364, -1.135479211807251, -8.517681121826172, 
157, 349937509, -135.9530792236328, -75.58319091796875, -175.98081970214844, 9.692955017089844, -0.5514658689498901, -1.549735426902771, 1.453364372253418, -1.0937790870666504, -9.643860816955566, 
158, 349945842, -136.18226623535156, -75.64460754394531, -175.707763671875, 9.745488166809082, -0.5513039231300354, -1.5246554613113403, 1.3176860809326172, -1.062606692314148, -10.692305564880371, 
159, 349954175, -136.46014404296875, -75.705322265625, -175.40850830078125, 9.7755708694458, -0.5464945435523987, -1.5171887874603271, 1.2125266790390015, -0.9395173788070679, -11.911811828613281, 
160, 349962508, -136.74737548828125, -75.78126525878906, -175.07904052734375, 9.731576919555664, -0.5686952471733093, -1.5175777673721313, 1.068100929260254, -0.8441941142082214, -12.847436904907227, 
161, 349970841, -137.08135986328125, -75.85285186767578, -174.72561645507812, 9.750865936279297, -0.5640581846237183, -1.5588908195495605, 0.806605339050293, -0.895217776298523, -13.911914825439453, 
162, 349979174, -137.43414306640625, -75.94125366210938, -174.33181762695312, 9.774158477783203, -0.577433705329895, -1.5365396738052368, 0.8117536902427673, -0.8376368284225464, -14.98522663116455, 
163, 349987507, -137.821044921875, -76.0247573852539, -173.92453002929688, 9.782570838928223, -0.580846905708313, -1.52872633934021, 0.7477052211761475, -0.651075541973114, -15.94684886932373, 
164, 349995840, -138.229736328125, -76.12547302246094, -173.4770965576172, 9.780183792114258, -0.6020072102546692, -1.5630178451538086, 0.5838252902030945, -0.5154224634170532, -16.87364959716797, 
165, 350004173, -138.67030334472656, -76.21863555908203, -173.01730346679688, 9.803343772888184, -0.5708399415016174, -1.570486068725586, 0.4586870074272156, -0.46774160861968994, -17.722646713256836, 
166, 350012506, -139.14065551757812, -76.32917022705078, -172.50914001464844, 9.820942878723145, -0.5745759010314941, -1.5733020305633545, 0.3372115194797516, -0.4062931537628174, -18.639511108398438, 
167, 350020839, -139.64083862304688, -76.43036651611328, -171.990234375, 9.81028938293457, -0.5935949087142944, -1.5499591827392578, 0.24507708847522736, -0.4112111032009125, -19.474227905273438, 
168, 350029172, -140.17291259765625, -76.54850769042969, -171.42239379882812, 9.804520606994629, -0.5762451887130737, -1.5512741804122925, 0.1664285659790039, -0.35065901279449463, -20.213096618652344, 
169, 350037505, -140.72760009765625, -76.65623474121094, -170.84889221191406, 9.816652297973633, -0.5681121349334717, -1.5653109550476074, 0.12860912084579468, -0.2741364538669586, -20.96160888671875, 
170, 350045838, -141.3197784423828, -76.78195190429688, -170.2221221923828, 9.84977912902832, -0.5812824964523315, -1.56370210647583, 0.07726536691188812, -0.13088878989219666, -21.720417022705078, 
171, 350054171, -141.92958068847656, -76.89604187011719, -169.5933837890625, 9.832512855529785, -0.6019890904426575, -1.546547293663025, 0.03577028959989548, -0.02581915631890297, -22.394453048706055, 
172, 350062504, -142.5856170654297, -77.02613067626953, -168.90528869628906, 9.833248138427734, -0.6242530941963196, -1.5941709280014038, -0.11180618405342102, -0.10627352446317673, -23.00594711303711, 
173, 350070837, -143.25650024414062, -77.14337921142578, -168.21620178222656, 9.864754676818848, -0.6206685900688171, -1.5546722412109375, -0.15944869816303253, -0.012089923955500126, -23.65509033203125, 
174, 350079170, -143.97743225097656, -77.27700805664062, -167.4626007080078, 9.866637229919434, -0.623091995716095, -1.5300476551055908, -0.19185073673725128, -0.023974936455488205, -24.241809844970703, 
175, 350087503, -144.70892333984375, -77.39569854736328, -166.7133026123047, 9.870375633239746, -0.6284254789352417, -1.5603339672088623, -0.3112387955188751, -0.017315233126282692, -24.737424850463867, 
176, 350095836, -145.48712158203125, -77.53025817871094, -165.90621948242188, 9.899311065673828, -0.6438501477241516, -1.566838264465332, -0.41379818320274353, 0.08564123511314392, -25.061260223388672, 
177, 350104169, -146.2722625732422, -77.64891052246094, -165.10317993164062, 9.880218505859375, -0.6223461627960205, -1.5630689859390259, -0.3619805872440338, 0.07155340909957886, -25.549753189086914, 
178, 350112502, -147.11224365234375, -77.78323364257812, -164.23599243164062, 9.889297485351562, -0.6392589211463928, -1.5758954286575317, -0.3976612687110901, 0.13246411085128784, -25.921188354492188, 
179, 350120835, -147.95274353027344, -77.9005126953125, -163.37771606445312, 9.899443626403809, -0.6339806914329529, -1.5957598686218262, -0.43820860981941223, 0.12360157072544098, -26.265621185302734, 
180, 350129168, -148.85142517089844, -78.03176879882812, -162.45237731933594, 9.912704467773438, -0.6236726641654968, -1.5811876058578491, -0.4773472547531128, 0.07790575176477432, -26.4891357421875, 
181, 350137501, -149.7465057373047, -78.145263671875, -161.54005432128906, 9.921821594238281, -0.6444678902626038, -1.6175414323806763, -0.5481449961662292, 0.06968357414007187, -26.79058837890625, 
182, 350145834, -150.69647216796875, -78.27294158935547, -160.56771850585938, 9.920576095581055, -0.6526386737823486, -1.6304517984390259, -0.4801647663116455, 0.1852806955575943, -26.88254165649414, 
183, 350154167, -151.632080078125, -78.38086700439453, -159.61416625976562, 9.935782432556152, -0.6626448631286621, -1.60520339012146, -0.4759384095668793, 0.06481686234474182, -26.92401123046875, 
184, 350162500, -152.63082885742188, -78.50169372558594, -158.5930938720703, 9.940019607543945, -0.6986358165740967, -1.575942873954773, -0.4976080060005188, 0.06561090052127838, -27.043319702148438, 
185, 350170833, -153.60792541503906, -78.6037826538086, -157.59799194335938, 9.92397689819336, -0.6867124438285828, -1.5806363821029663, -0.4821626842021942, 0.09214726835489273, -27.067476272583008, 
186, 350179166, -154.64071655273438, -78.71753692626953, -156.54393005371094, 9.934123039245605, -0.7036985158920288, -1.5749106407165527, -0.49017995595932007, 0.12752056121826172, -26.914329528808594, 
187, 350187499, -155.6468505859375, -78.8115005493164, -155.5202178955078, 9.901606559753418, -0.7044031023979187, -1.6057287454605103, -0.5088782906532288, 0.04476090148091316, -26.843889236450195, 
188, 350195832, -156.71060180664062, -78.91585540771484, -154.44134521484375, 9.916956901550293, -0.7124715447425842, -1.6028193235397339, -0.6035229563713074, 0.000217721113585867, -26.634029388427734, 
189, 350204165, -157.73118591308594, -79.00183868408203, -153.4031219482422, 9.939921379089355, -0.7262546420097351, -1.6088396310806274, -0.4469173848628998, 0.15047092735767365, -26.379680633544922, 
190, 350212498, -158.8060760498047, -79.09647369384766, -152.31167602539062, 9.931675910949707, -0.7417224645614624, -1.6229544878005981, -0.31784719228744507, -0.019518058747053146, -26.059423446655273, 
191, 350220831, -159.83656311035156, -79.17241668701172, -151.26315307617188, 9.962355613708496, -0.7517974376678467, -1.5727121829986572, -0.35373279452323914, 0.014126257039606571, -25.782867431640625, 
192, 350229164, -160.91024780273438, -79.25823211669922, -150.17489624023438, 9.943151473999023, -0.7744936943054199, -1.6098781824111938, -0.27742791175842285, 0.11753098666667938, -25.297271728515625, 
193, 350237497, -161.93789672851562, -79.32428741455078, -149.12945556640625, 9.929699897766113, -0.7776021957397461, -1.5991467237472534, -0.30757588148117065, -0.044824935495853424, -24.99748420715332, 
194, 350245830, -163.00563049316406, -79.39891815185547, -148.0466766357422, 9.929215431213379, -0.7750042080879211, -1.6206306219100952, -0.15934626758098602, -0.061909642070531845, -24.448034286499023, 
195, 350254163, -164.01214599609375, -79.45448303222656, -147.02081298828125, 9.935791969299316, -0.7802093029022217, -1.6216851472854614, -0.02102929726243019, -0.1556321531534195, -23.923603057861328, 
196, 350262496, -165.05712890625, -79.51823425292969, -145.9622039794922, 9.929049491882324, -0.7638096809387207, -1.6240440607070923, -0.05569816753268242, -0.19065962731838226, -23.358766555786133, 
197, 350270829, -166.0317840576172, -79.56364440917969, -144.9689483642578, 9.927569389343262, -0.7854619026184082, -1.6368070840835571, 0.0009221129585057497, -0.2694362699985504, -22.678831100463867, 
198, 350279162, -167.0380401611328, -79.61613464355469, -143.95082092285156, 9.916291236877441, -0.8045961856842041, -1.6110831499099731, 0.12014361470937729, -0.3955095112323761, -22.042516708374023, 
199, 350287495, -167.96609497070312, -79.65149688720703, -143.00274658203125, 9.892122268676758, -0.7789252400398254, -1.6472058296203613, 0.29163095355033875, -0.44120532274246216, -21.266891479492188, 
200, 350295828, -168.91697692871094, -79.6952896118164, -142.0412139892578, 9.894561767578125, -0.803791880607605, -1.614365577697754, 0.30484795570373535, -0.3791933059692383, -20.544828414916992, 
201, 350304161, -169.78756713867188, -79.72212982177734, -141.15077209472656, 9.88325309753418, -0.8098275661468506, -1.641398549079895, 0.4199327230453491, -0.5127202868461609, -19.715486526489258, 
202, 350312494, -170.66990661621094, -79.7558364868164, -140.2581024169922, 9.903250694274902, -0.7906115651130676, -1.6347428560256958, 0.5319437980651855, -0.6346185207366943, -18.838685989379883, 
203, 350320827, -171.4680938720703, -79.77490234375, -139.43936157226562, 9.910565376281738, -0.8008968830108643, -1.61283278465271, 0.6628581881523132, -0.6070832014083862, -17.957454681396484, 
204, 350329160, -172.2742919921875, -79.80168914794922, -138.6231689453125, 9.878518104553223, -0.807815432548523, -1.6396876573562622, 0.730659008026123, -0.6565442681312561, -17.105138778686523, 
205, 350337493, -172.9943084716797, -79.81301879882812, -137.88229370117188, 9.921608924865723, -0.8304504752159119, -1.5852042436599731, 0.8594474196434021, -0.8307722210884094, -16.132436752319336, 
206, 350345826, -173.7136993408203, -79.83209991455078, -137.15390014648438, 9.875277519226074, -0.8138952851295471, -1.6046867370605469, 1.0381324291229248, -0.8772876858711243, -15.225820541381836, 
207, 350354159, -174.3375701904297, -79.83746337890625, -136.5077362060547, 9.8864164352417, -0.8532958030700684, -1.6108754873275757, 1.2190971374511719, -0.9573067426681519, -14.028485298156738, 
208, 350362492, -174.9482421875, -79.85030364990234, -135.88687133789062, 9.87531852722168, -0.8300548195838928, -1.6341620683670044, 1.3477827310562134, -1.0727499723434448, -12.952018737792969, 
209, 350370825, -175.4791259765625, -79.84991455078125, -135.33367919921875, 9.857132911682129, -0.8491694331169128, -1.6451542377471924, 1.4145077466964722, -1.178920865058899, -12.007850646972656, 
210, 350379158, -175.98594665527344, -79.85816955566406, -134.81776428222656, 9.848751068115234, -0.8435199856758118, -1.6419384479522705, 1.5329864025115967, -1.1869382858276367, -10.819659233093262, 
211, 350387491, -176.4069061279297, -79.85322570800781, -134.37384033203125, 9.856317520141602, -0.8457356095314026, -1.6278331279754639, 1.6990306377410889, -1.39187753200531, -9.674214363098145, 
212, 350395824, -176.79583740234375, -79.85591888427734, -133.96067810058594, 9.858444213867188, -0.8597331643104553, -1.6442800760269165, 2.021078586578369, -1.527248740196228, -8.46314811706543, 
213, 350404157, -177.1045684814453, -79.84796905517578, -133.626953125, 9.830028533935547, -0.8710394501686096, -1.6638667583465576, 2.139724016189575, -1.5056817531585693, -7.342962265014648, 
214, 350412490, -177.38121032714844, -79.84801483154297, -133.32716369628906, 9.845257759094238, -0.8858551979064941, -1.6148464679718018, 2.072742223739624, -1.6370824575424194, -6.180868148803711, 
215, 350420823, -177.5803680419922, -79.83614349365234, -133.10260009765625, 9.86465835571289, -0.8565242290496826, -1.6615219116210938, 2.3938167095184326, -1.8133087158203125, -5.035348892211914, 
216, 350429156, -177.73898315429688, -79.8329086303711, -132.91908264160156, 9.845220565795898, -0.85594642162323, -1.616857647895813, 2.4929697513580322, -1.8636661767959595, -3.841110944747925, 
217, 350437489, -177.82138061523438, -79.81918334960938, -132.8104248046875, 9.83524227142334, -0.8560370802879333, -1.6057976484298706, 2.712662935256958, -1.925755262374878, -2.586038827896118, 
218, 350445822, -177.85507202148438, -79.81334686279297, -132.7497100830078, 9.843280792236328, -0.8649291396141052, -1.6263118982315063, 2.9437031745910645, -2.078005790710449, -1.3524315357208252, 
219, 350454155, -177.81640625, -79.7973403930664, -132.7625274658203, 9.8490629196167, -0.8882997035980225, -1.6085470914840698, 2.903438091278076, -2.0893020629882812, -0.00560951791703701, 
220, 350462488, -177.7294921875, -79.78968048095703, -132.82241821289062, 9.833230972290039, -0.8415011763572693, -1.6295044422149658, 3.148130178451538, -2.2089715003967285, 1.0933053493499756, 
221, 350470821, -177.58033752441406, -79.77201080322266, -132.944091796875, 9.869255065917969, -0.8618120551109314, -1.6100504398345947, 3.296232223510742, -2.208561897277832, 2.3275272846221924, 
222, 350479154, -177.36917114257812, -79.76177215576172, -133.12742614746094, 9.818463325500488, -0.8532814383506775, -1.6103006601333618, 3.469640016555786, -2.376309394836426, 3.626988410949707, 
223, 350487487, -177.103759765625, -79.74115753173828, -133.36376953125, 9.867070198059082, -0.8563046455383301, -1.6044423580169678, 3.702204704284668, -2.433736562728882, 4.812402725219727, 
224, 350495820, -176.77639770507812, -79.72871398925781, -133.6775665283203, 9.868997573852539, -0.8450299501419067, -1.598091959953308, 3.702563524246216, -2.4769351482391357, 6.027952194213867, 
225, 350504153, -176.39703369140625, -79.7064437866211, -134.02804565429688, 9.8644380569458, -0.8580000996589661, -1.5566753149032593, 3.9276230335235596, -2.4225945472717285, 7.29763650894165, 
226, 350512486, -175.95494079589844, -79.69164276123047, -134.4544677734375, 9.861817359924316, -0.8526898622512817, -1.568541407585144, 4.087250709533691, -2.528919219970703, 8.40373706817627, 
227, 350520819, -175.46917724609375, -79.66683197021484, -134.91036987304688, 9.87306022644043, -0.8512399792671204, -1.565919280052185, 4.24967098236084, -2.448669910430908, 9.642056465148926, 
228, 350529152, -174.9119415283203, -79.64924621582031, -135.4371337890625, 9.883852005004883, -0.860298752784729, -1.5570018291473389, 4.395518779754639, -2.51247501373291, 10.840188980102539, 
229, 350537485, -174.32398986816406, -79.62056732177734, -135.995849609375, 9.87134075164795, -0.8575797080993652, -1.5669084787368774, 4.37851095199585, -2.496056318283081, 11.97574520111084, 
230, 350545818, -173.66517639160156, -79.59970092773438, -136.62376403808594, 9.881421089172363, -0.838447630405426, -1.5551296472549438, 4.6467437744140625, -2.4350690841674805, 13.034281730651855, 
231, 350554151, -172.97744750976562, -79.56768035888672, -137.28024291992188, 9.876002311706543, -0.8538106083869934, -1.532584309577942, 4.8195109367370605, -2.371366262435913, 14.235920906066895, 
232, 350562484, -172.21726989746094, -79.54300689697266, -138.0230712890625, 9.89256477355957, -0.8261733651161194, -1.5439847707748413, 4.8779120445251465, -2.2869415283203125, 15.282594680786133, 
233, 350570817, -171.44581604003906, -79.50555419921875, -138.762939453125, 9.88764476776123, -0.8500139117240906, -1.52266526222229, 5.0655107498168945, -2.3615047931671143, 16.25232696533203, 
234, 350579150, -170.59959411621094, -79.47425079345703, -139.59136962890625, 9.878775596618652, -0.8356865644454956, -1.5507177114486694, 5.081826686859131, -2.3499016761779785, 17.3024845123291, 
235, 350587483, -169.7467041015625, -79.43098449707031, -140.41262817382812, 9.906253814697266, -0.8336542248725891, -1.5441606044769287, 5.265737533569336, -2.2462410926818848, 18.2906551361084, 
236, 350595816, -168.81906127929688, -79.3931655883789, -141.320068359375, 9.897127151489258, -0.8112616539001465, -1.5509474277496338, 5.265789031982422, -2.215811252593994, 19.292278289794922, 
237, 350604149, -167.90029907226562, -79.34278106689453, -142.20640563964844, 9.911827087402344, -0.8055449724197388, -1.5996183156967163, 5.509919166564941, -2.1914782524108887, 20.071516036987305, 
238, 350612482, -166.9016571044922, -79.29570007324219, -143.183349609375, 9.893827438354492, -0.7942749261856079, -1.5850787162780762, 5.678717136383057, -2.2719578742980957, 21.155946731567383, 
239, 350620815, -165.9185791015625, -79.23568725585938, -144.1336669921875, 9.921055793762207, -0.8033255934715271, -1.5946608781814575, 5.727972507476807, -2.236379861831665, 21.964920043945312, 
240, 350629148, -164.87176513671875, -79.17957305908203, -145.1570281982422, 9.912084579467773, -0.7856346368789673, -1.6384119987487793, 5.734325408935547, -2.2284138202667236, 22.682273864746094, 
241, 350637481, -163.84397888183594, -79.10924530029297, -146.1517791748047, 9.925844192504883, -0.7859959602355957, -1.5638935565948486, 5.898231506347656, -2.2989044189453125, 23.54888343811035, 
242, 350645814, -162.75949096679688, -79.04240417480469, -147.21343994140625, 9.914299964904785, -0.7733413577079773, -1.5963702201843262, 6.01936149597168, -2.2909128665924072, 24.087421417236328, 
243, 350654147, -161.70233154296875, -78.96263885498047, -148.2364044189453, 9.914392471313477, -0.7829303741455078, -1.5886805057525635, 6.163390636444092, -2.204695463180542, 24.84358024597168, 
244, 350662480, -160.59107971191406, -78.88455963134766, -149.32369995117188, 9.914813995361328, -0.7672456502914429, -1.598235845565796, 6.208009719848633, -2.328002452850342, 25.39958953857422, 
245, 350670813, -159.51654052734375, -78.79325866699219, -150.36367797851562, 9.914711952209473, -0.772843062877655, -1.5857282876968384, 6.321840763092041, -2.293653964996338, 26.06000518798828, 
246, 350679146, -158.39073181152344, -78.70417022705078, -151.4619140625, 9.94714641571045, -0.7546373605728149, -1.5806859731674194, 6.301015853881836, -2.3021318912506104, 26.564603805541992, 
247, 350687479, -157.31304931640625, -78.60181427001953, -152.50514221191406, 9.930254936218262, -0.7622045278549194, -1.5766363143920898, 6.385133743286133, -2.3442163467407227, 27.05995750427246, 
248, 350695812, -156.18455505371094, -78.50117492675781, -153.6055145263672, 9.926251411437988, -0.7494211792945862, -1.577078104019165, 6.4657673835754395, -2.3229823112487793, 27.57708740234375, 
249, 350704145, -155.11141967773438, -78.3887710571289, -154.6453857421875, 9.919439315795898, -0.7231517434120178, -1.5806034803390503, 6.3251447677612305, -2.2368669509887695, 27.945545196533203, 
250, 350712478, -153.99911499023438, -78.27827453613281, -155.7262725830078, 9.946871757507324, -0.7011110186576843, -1.5743640661239624, 6.566226005554199, -2.281486988067627, 28.198793411254883, 
251, 350720811, -152.94442749023438, -78.156005859375, -156.74559020996094, 9.921849250793457, -0.7243918776512146, -1.6109387874603271, 6.625011920928955, -2.233051061630249, 28.51310920715332, 
252, 350729144, -151.85989379882812, -78.03610229492188, -157.8019256591797, 9.949899673461914, -0.7036930322647095, -1.5697911977767944, 6.49906587600708, -2.257460832595825, 28.637128829956055, 
253, 350737477, -150.83216857910156, -77.90531921386719, -158.79437255859375, 9.913900375366211, -0.7085414528846741, -1.5560400485992432, 6.6522135734558105, -2.137202024459839, 28.917583465576172, 
254, 350745810, -149.77072143554688, -77.77769470214844, -159.82284545898438, 9.918225288391113, -0.6925569772720337, -1.5592252016067505, 6.642082691192627, -2.016904592514038, 29.098968505859375, 
255, 350754143, -148.7791748046875, -77.63914489746094, -160.77952575683594, 9.934113502502441, -0.6796513199806213, -1.5608747005462646, 6.6288533210754395, -2.0695290565490723, 29.106796264648438, 
256, 350762476, -147.75787353515625, -77.50646209716797, -161.76795959472656, 9.942877769470215, -0.6798964738845825, -1.5422090291976929, 6.635103225708008, -1.7421278953552246, 29.085277557373047, 
257, 350770809, -146.80198669433594, -77.3631820678711, -162.68849182128906, 9.918403625488281, -0.6683956980705261, -1.554159164428711, 6.698345184326172, -1.744356393814087, 29.113378524780273, 
258, 350779142, -145.82781982421875, -77.22383117675781, -163.6257781982422, 9.920910835266113, -0.6594753265380859, -1.5507560968399048, 6.6866655349731445, -1.789335012435913, 29.012895584106445, 
259, 350787475, -144.91957092285156, -77.07588195800781, -164.49964904785156, 9.90884017944336, -0.6352311372756958, -1.5739166736602783, 6.549078941345215, -1.6392227411270142, 28.886348724365234, 
260, 350795808, -143.99954223632812, -76.93346405029297, -165.3813934326172, 9.902000427246094, -0.6431183218955994, -1.5920650959014893, 6.589856147766113, -1.6597654819488525, 28.576519012451172, 
261, 350804141, -143.14453125, -76.78282165527344, -166.2015838623047, 9.88630199432373, -0.6476418375968933, -1.5435839891433716, 6.558299541473389, -1.5315146446228027, 28.339866638183594, 
262, 350812474, -142.27850341796875, -76.63912200927734, -167.03163146972656, 9.901490211486816, -0.6355323791503906, -1.5611809492111206, 6.490754127502441, -1.49245285987854, 28.008930206298828, 
263, 350820807, -141.4765167236328, -76.48736572265625, -167.7994384765625, 9.890344619750977, -0.6452168822288513, -1.5379419326782227, 6.435722351074219, -1.3857312202453613, 27.68069839477539, 
264, 350829140, -140.66949462890625, -76.34281158447266, -168.56788635253906, 9.866927146911621, -0.6209887266159058, -1.563732624053955, 6.3880534172058105, -1.495462417602539, 27.265460968017578, 
265, 350837473, -139.9288330078125, -76.19084930419922, -169.27481079101562, 9.85400390625, -0.609192967414856, -1.5445055961608887, 6.268934726715088, -1.458398699760437, 26.749271392822266, 
266, 350845806, -139.18014526367188, -76.0488052368164, -169.98526000976562, 9.850140571594238, -0.6030126214027405, -1.5324220657348633, 6.170141220092773, -1.3105275630950928, 26.274232864379883, 
267, 350854139, -138.49356079101562, -75.89977264404297, -170.6373291015625, 9.856152534484863, -0.6182684898376465, -1.5737152099609375, 6.27894926071167, -1.269173264503479, 25.646114349365234, 
268, 350862472, -137.8026580810547, -75.76143646240234, -171.28726196289062, 9.846097946166992, -0.6054609417915344, -1.5505635738372803, 6.222930431365967, -1.2229652404785156, 25.113056182861328, 
269, 350870805, -137.17112731933594, -75.6156005859375, -171.88539123535156, 9.832321166992188, -0.573889970779419, -1.5661240816116333, 6.029901504516602, -1.2100170850753784, 24.50889015197754, 
270, 350879138, -136.5423126220703, -75.48285675048828, -172.4730682373047, 9.835243225097656, -0.5724137425422668, -1.579219102859497, 5.8597331047058105, -1.1568418741226196, 23.74250030517578, 
271, 350887471, -135.96815490722656, -75.34233856201172, -173.01454162597656, 9.806425094604492, -0.5963488817214966, -1.567043662071228, 5.813870906829834, -1.1655635833740234, 23.082612991333008, 
272, 350895804, -135.3988037109375, -75.21580505371094, -173.54220581054688, 9.798690795898438, -0.5802245736122131, -1.5532220602035522, 5.784337520599365, -1.1962493658065796, 22.272380828857422, 
273, 350904137, -134.8797149658203, -75.0822525024414, -174.02899169921875, 9.783113479614258, -0.579983115196228, -1.5757372379302979, 5.6178693771362305, -1.1039608716964722, 21.525081634521484, 
274, 350912470, -134.3654022216797, -74.96455383300781, -174.50340270996094, 9.78786849975586, -0.5757067203521729, -1.5702638626098633, 5.5804219245910645, -1.0619796514511108, 20.66826629638672, 
275, 350920803, -133.90008544921875, -74.83918762207031, -174.93719482421875, 9.775138854980469, -0.5736671686172485, -1.5521457195281982, 5.367721080780029, -1.0569078922271729, 19.85024642944336, 
276, 350929136, -133.44384765625, -74.73152160644531, -175.35289001464844, 9.766206741333008, -0.5825846195220947, -1.5587128400802612, 5.24691104888916, -1.0166549682617188, 18.866260528564453, 
277, 350937469, -133.0326690673828, -74.6158447265625, -175.73348999023438, 9.765966415405273, -0.5638545155525208, -1.5596764087677002, 5.071197032928467, -1.0345079898834229, 17.99913787841797, 
278, 350945802, -132.6307373046875, -74.51918029785156, -176.09707641601562, 9.75383472442627, -0.5679033994674683, -1.5644315481185913, 4.968547821044922, -0.9873648881912231, 17.028884887695312, 
279, 350954135, -132.2699737548828, -74.4150161743164, -176.42747497558594, 9.765215873718262, -0.56180340051651, -1.5828030109405518, 4.875772953033447, -0.9190773367881775, 16.002779006958008, 
280, 350962468, -131.9208221435547, -74.33209991455078, -176.73500061035156, 9.735494613647461, -0.5715965628623962, -1.6036708354949951, 4.84132194519043, -0.8465378284454346, 14.903824806213379, 
281, 350970801, -131.61346435546875, -74.23966217041016, -177.01319885253906, 9.732732772827148, -0.5479780435562134, -1.569176197052002, 4.522193431854248, -0.9721114635467529, 13.919442176818848, 
282, 350979134, -131.3198699951172, -74.16971588134766, -177.26527404785156, 9.707330703735352, -0.5676012635231018, -1.5741167068481445, 4.483029842376709, -0.9097024202346802, 12.794772148132324, 
283, 350987467, -131.06150817871094, -74.08946990966797, -177.49449157714844, 9.71259880065918, -0.5488297939300537, -1.5873827934265137, 4.317023754119873, -1.012658953666687, 11.828758239746094, 
284, 350995800, -130.82069396972656, -74.03353118896484, -177.69668579101562, 9.70052719116211, -0.5483033657073975, -1.6008585691452026, 4.138991832733154, -0.9308982491493225, 10.626667976379395, 
285, 351004133, -130.61373901367188, -73.96710205078125, -177.87498474121094, 9.70234489440918, -0.5265555381774902, -1.5862852334976196, 4.04097843170166, -1.065616250038147, 9.51896858215332, 
286, 351012466, -130.4268798828125, -73.92640686035156, -178.02435302734375, 9.689362525939941, -0.5281132459640503, -1.5843735933303833, 3.793161392211914, -0.980116069316864, 8.302369117736816, 
287, 351020799, -130.269775390625, -73.8747329711914, -178.1535186767578, 9.695241928100586, -0.5180421471595764, -1.5849982500076294, 3.725130081176758, -1.0808311700820923, 7.150394439697266, 
288, 351029132, -130.13636779785156, -73.85008239746094, -178.2491455078125, 9.684860229492188, -0.5385968685150146, -1.5842695236206055, 3.502464771270752, -1.0302941799163818, 5.887329578399658, 
289, 351037465, -130.02606201171875, -73.81312561035156, -178.33262634277344, 9.703039169311523, -0.5547988414764404, -1.6004928350448608, 3.3797597885131836, -1.0679086446762085, 4.836799621582031, 
290, 351045798, -129.93971252441406, -73.8034896850586, -178.38278198242188, 9.681978225708008, -0.5378473997116089, -1.5976340770721436, 3.2094380855560303, -1.039643406867981, 3.691600799560547, 
291, 351054131, -129.8755340576172, -73.7833251953125, -178.4206085205078, 9.694927215576172, -0.5659691095352173, -1.569246768951416, 3.1042916774749756, -0.9335492253303528, 2.324004888534546, 
292, 351062464, -129.8394775390625, -73.7904281616211, -178.42140197753906, 9.678008079528809, -0.5285771489143372, -1.5779361724853516, 2.9166674613952637, -1.0300124883651733, 1.2595545053482056, 
293, 351070797, -129.822265625, -73.78526306152344, -178.4129638671875, 9.685410499572754, -0.5414618849754333, -1.5636199712753296, 2.795844793319702, -0.9708179235458374, -0.042199451476335526, 
294, 351079130, -129.8372344970703, -73.81005096435547, -178.3651123046875, 9.680377960205078, -0.5396425724029541, -1.5848690271377563, 2.6715903282165527, -0.98380446434021, -1.2867183685302734, 
295, 351087463, -129.867431640625, -73.81947326660156, -178.31057739257812, 9.689855575561523, -0.5525768995285034, -1.5958607196807861, 2.421826124191284, -1.0376455783843994, -2.3682539463043213, 
296, 351095796, -129.93380737304688, -73.85932159423828, -178.2140350341797, 9.715864181518555, -0.5479643940925598, -1.5936074256896973, 2.2306928634643555, -1.0922294855117798, -3.561749219894409, 
297, 351104129, -130.01431274414062, -73.8835678100586, -178.11029052734375, 9.696121215820312, -0.5407865643501282, -1.5901858806610107, 2.0602426528930664, -1.148747205734253, -4.773955821990967, 
298, 351112462, -130.13116455078125, -73.94007110595703, -177.96347045898438, 9.711808204650879, -0.5413028597831726, -1.6009691953659058, 2.0261244773864746, -1.0730314254760742, -5.992603778839111, 
299, 351120795, -130.2582550048828, -73.9791488647461, -177.81332397460938, 9.73486042022705, -0.5618298649787903, -1.5947318077087402, 1.8206727504730225, -1.1509500741958618, -7.10679817199707, 
300, 351129128, -130.42929077148438, -74.05045318603516, -177.61680603027344, 9.719632148742676, -0.5339272618293762, -1.595496416091919, 1.519718050956726, -1.1660752296447754, -8.27271842956543, 
301, 351137461, -130.60438537597656, -74.10279846191406, -177.419677734375, 9.69226360321045, -0.5296102166175842, -1.5941132307052612, 1.4937968254089355, -1.2313916683197021, -9.29342269897461, 
302, 351145794, -130.8277130126953, -74.1884536743164, -177.17123413085938, 9.714208602905273, -0.5531158447265625, -1.5758477449417114, 1.2776126861572266, -1.2301623821258545, -10.494397163391113, 
303, 351154127, -131.04946899414062, -74.2554931640625, -176.92758178710938, 9.733935356140137, -0.5540648102760315, -1.5822237730026245, 1.2816978693008423, -1.118163824081421, -11.57845401763916, 
304, 351162460, -131.32618713378906, -74.3550796508789, -176.6273651123047, 9.728501319885254, -0.5599240660667419, -1.5767457485198975, 1.0282195806503296, -1.2646262645721436, -12.674797058105469, 
305, 351170793, -131.59860229492188, -74.43391418457031, -176.3345184326172, 9.730687141418457, -0.5662011504173279, -1.5679388046264648, 0.9186930060386658, -1.209913969039917, -13.632818222045898, 
306, 351179126, -131.925537109375, -74.54703521728516, -175.98782348632812, 9.748340606689453, -0.5666975378990173, -1.6088097095489502, 0.7998559474945068, -1.150655746459961, -14.722360610961914, 
307, 351187459, -132.2491912841797, -74.63739776611328, -175.64410400390625, 9.767477989196777, -0.5820788145065308, -1.5903159379959106, 0.6846174001693726, -1.2613604068756104, -15.664451599121094, 
308, 351195792, -132.62973022460938, -74.76113891601562, -175.24533081054688, 9.77268123626709, -0.5757498741149902, -1.6031553745269775, 0.614639401435852, -1.2195582389831543, -16.570276260375977, 
309, 351204125, -133.0034942626953, -74.86055755615234, -174.8522491455078, 9.759730339050293, -0.5794482827186584, -1.6077429056167603, 0.43216344714164734, -1.3577724695205688, -17.41285514831543, 
310, 351212458, -133.43997192382812, -74.9933853149414, -174.39942932128906, 9.78030014038086, -0.573406457901001, -1.5844142436981201, 0.35847124457359314, -1.333464503288269, -18.277923583984375, 
311, 351220791, -133.8636016845703, -75.10218048095703, -173.95663452148438, 9.765542030334473, -0.5752239227294922, -1.5925569534301758, 0.27267637848854065, -1.3121662139892578, -19.163755416870117, 
312, 351229124, -134.3567657470703, -75.24420928955078, -173.44996643066406, 9.80319595336914, -0.5837556719779968, -1.584778070449829, 0.11354795843362808, -1.3055838346481323, -19.98200798034668, 
313, 351237457, -134.8327178955078, -75.36066436767578, -172.95664978027344, 9.812919616699219, -0.5739569664001465, -1.5921016931533813, -0.08925284445285797, -1.301037073135376, -20.732925415039062, 
314, 351245790, -135.3793487548828, -75.51067352294922, -172.4007110595703, 9.822786331176758, -0.5897231101989746, -1.5902923345565796, -0.08807458728551865, -1.1585196256637573, -21.47515106201172, 
315, 351254123, -135.90676879882812, -75.6326675415039, -171.8560791015625, 9.816287994384766, -0.5954285264015198, -1.5922216176986694, -0.21727286279201508, -1.3383315801620483, -22.108003616333008, 
316, 351262456, -136.5131072998047, -75.78760528564453, -171.2438507080078, 9.844831466674805, -0.5967842936515808, -1.5952472686767578, -0.28566285967826843, -1.2630256414413452, -22.80078887939453, 
317, 351270789, -137.08975219726562, -75.91432189941406, -170.65072631835938, 9.856616973876953, -0.6070689558982849, -1.5753955841064453, -0.3990059196949005, -1.252805471420288, -23.30866813659668, 
318, 351279122, -137.75628662109375, -76.07328796386719, -169.98037719726562, 9.851460456848145, -0.617637574672699, -1.5653209686279297, -0.5473636984825134, -1.2598752975463867, -24.02630615234375, 
319, 351287455, -138.38563537597656, -76.20362854003906, -169.3340606689453, 9.866808891296387, -0.6179089546203613, -1.5819119215011597, -0.43517330288887024, -1.2094664573669434, -24.485414505004883, 
320, 351295788, -139.1033477783203, -76.36580657958984, -168.61407470703125, 9.876856803894043, -0.6285946369171143, -1.5706143379211426, -0.5117214322090149, -1.0728271007537842, -24.983318328857422, 
321, 351304121, -139.7827606201172, -76.49799346923828, -167.9182891845703, 9.871904373168945, -0.6453836560249329, -1.5684393644332886, -0.5683802366256714, -1.1243630647659302, -25.390714645385742, 
322, 351312454, -140.5603485107422, -76.65928649902344, -167.1407928466797, 9.86911678314209, -0.6371421217918396, -1.59011971950531, -0.6858727335929871, -1.21157968044281, -25.759279251098633, 
323, 351320787, -141.2870330810547, -76.79094696044922, -166.3981475830078, 9.883467674255371, -0.6366735100746155, -1.578495740890503, -0.6662393808364868, -1.084443211555481, -26.02672576904297, 
324, 351329120, -142.11798095703125, -76.9503173828125, -165.57089233398438, 9.899940490722656, -0.665533721446991, -1.5982236862182617, -0.8039288520812988, -1.2164462804794312, -26.291566848754883, 
325, 351337453, -142.89308166503906, -77.07940673828125, -164.78042602539062, 9.887086868286133, -0.655460774898529, -1.5859862565994263, -0.7679152488708496, -1.1339683532714844, -26.515743255615234, 
326, 351345786, -143.77484130859375, -77.23648834228516, -163.9030303955078, 9.915852546691895, -0.6643402576446533, -1.6164363622665405, -0.7207081913948059, -1.1174217462539673, -26.770580291748047, 
327, 351354119, -144.5953369140625, -77.36241912841797, -163.06600952148438, 9.931985855102539, -0.6541185975074768, -1.5874323844909668, -0.649679958820343, -1.1261308193206787, -26.91615104675293, 
328, 351362452, -145.52175903320312, -77.51406860351562, -162.1436004638672, 9.94003677368164, -0.6751986742019653, -1.583315134048462, -0.7086951732635498, -1.1188818216323853, -26.86450958251953, 
329, 351370785, -146.37603759765625, -77.63477325439453, -161.27366638183594, 9.924644470214844, -0.7108834981918335, -1.5849182605743408, -0.7412636876106262, -1.0476614236831665, -26.8707218170166, 
330, 351379118, -147.34417724609375, -77.78008270263672, -160.3124542236328, 9.928586959838867, -0.6989341974258423, -1.5533907413482666, -0.7084645628929138, -1.0922173261642456, -26.856800079345703, 
331, 351387451, -148.2298126220703, -77.89399719238281, -159.41140747070312, 9.934885025024414, -0.7051560282707214, -1.6047494411468506, -0.7400724291801453, -1.056459665298462, -26.70136833190918, 
332, 351395784, -149.2274627685547, -78.03132629394531, -158.42201232910156, 9.936875343322754, -0.7144644856452942, -1.5906176567077637, -0.7025989294052124, -1.032612919807434, -26.501527786254883, 
333, 351404117, -150.13580322265625, -78.13758087158203, -157.49769592285156, 9.945159912109375, -0.7367681264877319, -1.5770046710968018, -0.6261275410652161, -1.0378509759902954, -26.3356876373291, 
334, 351412450, -151.15972900390625, -78.26558685302734, -156.48297119140625, 9.948071479797363, -0.7343659400939941, -1.6256574392318726, -0.617124080657959, -1.0813568830490112, -26.051664352416992, 
335, 351420783, -152.0800018310547, -78.36326599121094, -155.54722595214844, 9.939724922180176, -0.7457246780395508, -1.584778070449829, -0.6054184436798096, -0.9792584180831909, -25.7066650390625, 
336, 351429116, -153.1173858642578, -78.48198699951172, -154.51844787597656, 9.936554908752441, -0.7533096075057983, -1.600252628326416, -0.5050617456436157, -1.0125056505203247, -25.386972427368164, 
337, 351437449, -154.0394744873047, -78.57080078125, -153.5801544189453, 9.927861213684082, -0.7646786570549011, -1.62047278881073, -0.4352629482746124, -0.9145824313163757, -24.912086486816406, 
338, 351445782, -155.0745391845703, -78.67928314208984, -152.55462646484375, 9.925749778747559, -0.759743332862854, -1.5859142541885376, -0.37135541439056396, -0.9117904305458069, -24.409358978271484, 
339, 351454115, -155.99269104003906, -78.75668334960938, -151.6195068359375, 9.93483829498291, -0.7774001359939575, -1.5973799228668213, -0.2474336177110672, -1.1371188163757324, -23.934589385986328, 
340, 351462448, -157.01788330078125, -78.8536605834961, -150.60299682617188, 9.900776863098145, -0.7632191777229309, -1.6143780946731567, -0.23598405718803406, -0.9835614562034607, -23.290369033813477, 
341, 351470781, -157.91299438476562, -78.92180633544922, -149.6907958984375, 9.932770729064941, -0.7945281267166138, -1.6051850318908691, -0.10568437725305557, -1.0305380821228027, -22.71896743774414, 
342, 351479114, -158.91635131835938, -79.00704956054688, -148.69760131835938, 9.935517311096191, -0.7833641171455383, -1.5983405113220215, -0.08164539933204651, -1.0964561700820923, -21.997961044311523, 
343, 351487447, -159.7757568359375, -79.06597137451172, -147.8213348388672, 9.924469947814941, -0.7786917090415955, -1.6101971864700317, 0.00801725685596466, -0.9466896057128906, -21.294950485229492, 
344, 351495780, -160.74156188964844, -79.1422119140625, -146.86428833007812, 9.919852256774902, -0.783659815788269, -1.619317650794983, 0.07772641628980637, -0.9021592736244202, -20.580942153930664, 
345, 351504113, -161.55923461914062, -79.19159698486328, -146.02854919433594, 9.91696548461914, -0.7852840423583984, -1.6254088878631592, 0.2993152141571045, -0.9913479685783386, -19.834951400756836, 
346, 351512446, -162.4740447998047, -79.25720977783203, -145.1221160888672, 9.906540870666504, -0.7965772747993469, -1.6188288927078247, 0.4106859266757965, -0.9690636396408081, -18.92313575744629, 
347, 351520779, -163.23338317871094, -79.29740142822266, -144.34519958496094, 9.902321815490723, -0.8166177272796631, -1.5875790119171143, 0.40225890278816223, -1.026798129081726, -18.0660343170166, 
348, 351529112, -164.09127807617188, -79.3526840209961, -143.49594116210938, 9.907035827636719, -0.8188995122909546, -1.5613679885864258, 0.5473891496658325, -1.098261833190918, -17.212974548339844, 
349, 351537445, -164.78074645996094, -79.38523864746094, -142.78829956054688, 9.901329040527344, -0.816959023475647, -1.5685677528381348, 0.6606040596961975, -0.964734673500061, -16.202823638916016, 
350, 351545778, -165.5648193359375, -79.43341827392578, -142.0121307373047, 9.899617195129395, -0.836731493473053, -1.549039363861084, 0.8485357761383057, -0.9460106492042542, -15.348640441894531, 
351, 351554111, -166.1763458251953, -79.45893096923828, -141.3814697265625, 9.887414932250977, -0.8434251546859741, -1.5512067079544067, 0.9741478562355042, -0.9352013468742371, -14.248046875, 
352, 351562444, -166.8704833984375, -79.49994659423828, -140.69503784179688, 9.887988090515137, -0.8500092029571533, -1.5524085760116577, 1.0074462890625, -0.8536713123321533, -13.175323486328125, 
353, 351570777, -167.3903045654297, -79.51982879638672, -140.15524291992188, 9.888164520263672, -0.8452365398406982, -1.5386511087417603, 1.269070029258728, -0.8379696607589722, -12.075907707214355, 
354, 351579110, -167.98963928222656, -79.5550537109375, -139.5628204345703, 9.871811866760254, -0.8457373380661011, -1.5529460906982422, 1.419861078262329, -0.761024534702301, -11.031155586242676, 
355, 351587443, -168.41612243652344, -79.57049560546875, -139.11582946777344, 9.872170448303223, -0.8520053625106812, -1.5712186098098755, 1.5472408533096313, -0.7081055641174316, -9.936145782470703, 
356, 351595776, -168.91017150878906, -79.60137939453125, -138.6267852783203, 9.86026382446289, -0.8658728003501892, -1.537826657295227, 1.7304081916809082, -0.5857719779014587, -8.719085693359375, 
357, 351604109, -169.23204040527344, -79.61287689208984, -138.28390502929688, 9.868227005004883, -0.8587680459022522, -1.549380898475647, 1.8263592720031738, -0.5973752737045288, -7.585426330566406, 
358, 351612442, -169.61717224121094, -79.63895416259766, -137.8791046142578, 9.843622207641602, -0.8585740923881531, -1.582383155822754, 2.0062222480773926, -0.5561363101005554, -6.357530117034912, 
359, 351620775, -169.83192443847656, -79.64759826660156, -137.6416473388672, 9.841157913208008, -0.8667469024658203, -1.5748485326766968, 2.2175137996673584, -0.4467122554779053, -5.248868942260742, 
360, 351629108, -170.106689453125, -79.67034912109375, -137.37078857421875, 9.851944923400879, -0.866545557975769, -1.5453232526779175, 2.3266820907592773, -0.4390280246734619, -4.024406433105469, 
361, 351637441, -170.2119598388672, -79.67398834228516, -137.24339294433594, 9.86084270477295, -0.8474498391151428, -1.579843521118164, 2.399759292602539, -0.5929182767868042, -2.797586679458618, 
362, 351645774, -170.3701629638672, -79.69258117675781, -137.08819580078125, 9.844223976135254, -0.8645488023757935, -1.5895334482192993, 2.602931499481201, -0.4708408713340759, -1.5576016902923584, 
363, 351654107, -170.3615264892578, -79.69441223144531, -137.0725860595703, 9.858879089355469, -0.8647881746292114, -1.5683053731918335, 2.8827157020568848, -0.39960765838623047, -0.38746652007102966, 
364, 351662440, -170.40408325195312, -79.70986938476562, -137.03134155273438, 9.850846290588379, -0.8659639954566956, -1.5754482746124268, 3.008174419403076, -0.420483261346817, 0.823715329170227, 
365, 351670773, -170.28224182128906, -79.70707702636719, -137.12890625, 9.8419771194458, -0.8564536571502686, -1.5715086460113525, 3.1049959659576416, -0.5514744520187378, 2.107731342315674, 
366, 351679106, -170.20870971679688, -79.71846008300781, -137.20327758789062, 9.8277587890625, -0.8602359890937805, -1.582221269607544, 3.308475971221924, -0.4885147213935852, 3.239701509475708, 
367, 351687439, -169.97500610351562, -79.71304321289062, -137.41177368164062, 9.839649200439453, -0.8533523082733154, -1.5925174951553345, 3.4391846656799316, -0.45173266530036926, 4.507630825042725, 
368, 351695772, -169.78208923339844, -79.71946716308594, -137.60574340820312, 9.877059936523438, -0.8641909956932068, -1.5816646814346313, 3.556549072265625, -0.6150233745574951, 5.748692512512207, 
369, 351704105, -169.44058227539062, -79.70823669433594, -137.92132568359375, 9.842740058898926, -0.8363804221153259, -1.5745333433151245, 3.7426371574401855, -0.6852833032608032, 6.892009735107422, 
370, 351712438, -169.134521484375, -79.71055603027344, -138.22784423828125, 9.844812393188477, -0.8533656001091003, -1.591055154800415, 3.880031108856201, -0.6186861991882324, 8.099668502807617, 
371, 351720771, -168.68345642089844, -79.69542694091797, -138.65260314941406, 9.868155479431152, -0.8448302149772644, -1.5757242441177368, 4.015607833862305, -0.6091833710670471, 9.29150104522705, 
372, 351729104, -168.2655029296875, -79.69258117675781, -139.070068359375, 9.862481117248535, -0.8598304986953735, -1.5833393335342407, 4.20981502532959, -0.6591311097145081, 10.452516555786133, 
373, 351737437, -167.70791625976562, -79.67159271240234, -139.59976196289062, 9.859940528869629, -0.8437122106552124, -1.573695182800293, 4.414869785308838, -0.6881265640258789, 11.667566299438477, 
374, 351745770, -167.1810760498047, -79.66233825683594, -140.1248321533203, 9.85980224609375, -0.8572590351104736, -1.619502305984497, 4.475549697875977, -0.740469217300415, 12.806656837463379, 
375, 351754103, -166.528564453125, -79.63439178466797, -140.74935913085938, 9.867022514343262, -0.8509629964828491, -1.5855439901351929, 4.627634048461914, -0.8081547617912292, 13.887589454650879, 
376, 351762436, -165.9064483642578, -79.61709594726562, -141.3689727783203, 9.863421440124512, -0.844062864780426, -1.592241883277893, 4.768385410308838, -0.9469073414802551, 14.949199676513672, 
377, 351770769, -165.1693878173828, -79.58177947998047, -142.077880859375, 9.884933471679688, -0.8246981501579285, -1.61372709274292, 4.83308744430542, -0.8738812208175659, 15.94365119934082, 
378, 351779102, -164.4583740234375, -79.55705261230469, -142.78631591796875, 9.901052474975586, -0.8265129923820496, -1.609784722328186, 4.934134483337402, -0.9645041227340698, 17.01434898376465, 
379, 351787435, -163.63949584960938, -79.51294708251953, -143.57594299316406, 9.880273818969727, -0.8141753077507019, -1.5855696201324463, 5.154059410095215, -0.9712921977043152, 18.020401000976562, 
380, 351795768, -162.85110473632812, -79.47989654541016, -144.36102294921875, 9.890728950500488, -0.8098451495170593, -1.6197901964187622, 5.2126641273498535, -0.9918346405029297, 18.90447425842285, 
381, 351804101, -161.96690368652344, -79.4261703491211, -145.21588134765625, 9.893912315368652, -0.7718961834907532, -1.6107772588729858, 5.330939292907715, -1.0890792608261108, 19.869354248046875, 
382, 351812434, -161.11187744140625, -79.38199615478516, -146.0666961669922, 9.892066955566406, -0.8003195524215698, -1.6233422756195068, 5.453785419464111, -1.2366557121276855, 20.750383377075195, 
383, 351820767, -160.16880798339844, -79.31813049316406, -146.97972106933594, 9.906065940856934, -0.7957075834274292, -1.6533207893371582, 5.573801040649414, -1.1444445848464966, 21.669639587402344, 
384, 351829100, -159.2600860595703, -79.2636947631836, -147.88331604003906, 9.909586906433105, -0.8017347455024719, -1.6385760307312012, 5.6339945793151855, -1.2965164184570312, 22.394987106323242, 
385, 351837433, -158.28005981445312, -79.18910217285156, -148.8328399658203, 9.896684646606445, -0.7964534759521484, -1.6562824249267578, 5.755560874938965, -1.2596319913864136, 23.123737335205078, 
386, 351845766, -157.33078002929688, -79.12223052978516, -149.77545166015625, 9.916903495788574, -0.7742385864257812, -1.6346505880355835, 5.936627388000488, -1.5556302070617676, 23.926334381103516, 
387, 351854099, -156.32330322265625, -79.03518676757812, -150.75173950195312, 9.89668083190918, -0.7638091444969177, -1.6237200498580933, 5.9686455726623535, -1.497767686843872, 24.54461097717285, 
388, 351862432, -155.3500518798828, -78.9583969116211, -151.71958923339844, 9.935158729553223, -0.7598483562469482, -1.6456233263015747, 5.972360134124756, -1.5243810415267944, 25.147239685058594, 
389, 351870765, -154.3264923095703, -78.8589096069336, -152.7122344970703, 9.899772644042969, -0.7731724381446838, -1.6378058195114136, 6.0462822914123535, -1.6988909244537354, 25.849096298217773, 
390, 351879098, -153.33958435058594, -78.76923370361328, -153.69271850585938, 9.918211936950684, -0.7604392766952515, -1.6270009279251099, 6.0362162590026855, -1.8009893894195557, 26.393861770629883, 
391, 351887431, -152.3155975341797, -78.6580810546875, -154.68569946289062, 9.9064302444458, -0.7383145689964294, -1.6213828325271606, 6.147291660308838, -1.851513147354126, 26.872549057006836, 
392, 351895764, -151.3252410888672, -78.55839538574219, -155.66920471191406, 9.930747032165527, -0.7580811977386475, -1.6081559658050537, 6.285967826843262, -1.7538461685180664, 27.322235107421875, 
393, 351904097, -150.30918884277344, -78.43658447265625, -156.6539764404297, 9.906051635742188, -0.7534589767456055, -1.617700457572937, 6.256677627563477, -1.9168680906295776, 27.741012573242188, 
394, 351912430, -149.33322143554688, -78.32624816894531, -157.62156677246094, 9.93635368347168, -0.7444742321968079, -1.6284762620925903, 6.349786281585693, -1.9174829721450806, 28.027280807495117, 
395, 351920763, -148.34352111816406, -78.19456481933594, -158.5802764892578, 9.940139770507812, -0.7115263938903809, -1.639531135559082, 6.264209270477295, -2.0544934272766113, 28.245697021484375, 
396, 351929096, -147.39093017578125, -78.07476043701172, -159.5260772705078, 9.905851364135742, -0.7191476225852966, -1.5986032485961914, 6.360980033874512, -2.026036262512207, 28.547815322875977, 
397, 351937429, -146.4271240234375, -77.93379974365234, -160.45738220214844, 9.931002616882324, -0.7184284329414368, -1.6157342195510864, 6.4925856590271, -2.1425557136535645, 28.738256454467773, 
398, 351945762, -145.51089477539062, -77.80489349365234, -161.36558532714844, 9.918099403381348, -0.6955087780952454, -1.6207834482192993, 6.389744281768799, -2.276876449584961, 28.82109260559082, 
399, 351954095, -144.5857696533203, -77.65608215332031, -162.25830078125, 9.930662155151367, -0.6903208494186401, -1.638096570968628, 6.496082305908203, -2.2474589347839355, 28.93365478515625, 
400, 351962428, -143.7072296142578, -77.5206298828125, -163.12832641601562, 9.912467002868652, -0.6877989768981934, -1.6526356935501099, 6.350631237030029, -2.3027215003967285, 28.936565399169922, 
401, 351970761, -142.8288116455078, -77.36500549316406, -163.97523498535156, 9.925089836120605, -0.647365391254425, -1.668558120727539, 6.3731207847595215, -2.4144763946533203, 28.92749786376953, 
402, 351979094, -142.0000457763672, -77.22343444824219, -164.794921875, 9.88239574432373, -0.6474484801292419, -1.6753907203674316, 6.339604377746582, -2.56326961517334, 28.79390525817871, 
403, 351987427, -141.1746368408203, -77.0610122680664, -165.5889434814453, 9.911413192749023, -0.6574848890304565, -1.6401896476745605, 6.340091228485107, -2.757310390472412, 28.76813507080078, 
404, 351995760, -140.39273071289062, -76.91542053222656, -166.36138916015625, 9.897647857666016, -0.6488862037658691, -1.6343662738800049, 6.350325107574463, -2.641265392303467, 28.548791885375977, 
405, 352004093, -139.61581420898438, -76.75154113769531, -167.10679626464844, 9.865386009216309, -0.6462881565093994, -1.6332539319992065, 6.313797473907471, -2.6378579139709473, 28.302967071533203, 
406, 352012426, -138.8856658935547, -76.60413360595703, -167.82542419433594, 9.883697509765625, -0.6342389583587646, -1.602681040763855, 6.343535900115967, -2.725407838821411, 28.032304763793945, 
407, 352020759, -138.1660614013672, -76.43817138671875, -168.51385498046875, 9.88527774810791, -0.6206825375556946, -1.6213359832763672, 6.203042507171631, -2.8428494930267334, 27.67772674560547, 
408, 352029092, -137.4927978515625, -76.29175567626953, -169.17739868164062, 9.871445655822754, -0.6086812019348145, -1.6084967851638794, 6.081964015960693, -2.7319908142089844, 27.196460723876953, 
409, 352037425, -136.82913208007812, -76.12606811523438, -169.8092803955078, 9.85050106048584, -0.6032552719116211, -1.5733977556228638, 6.196407794952393, -2.9613916873931885, 26.833913803100586, 
410, 352045758, -136.20945739746094, -75.98080444335938, -170.41812133789062, 9.855681419372559, -0.6036648154258728, -1.619808316230774, 6.083218574523926, -2.858832359313965, 26.349802017211914, 
411, 352054091, -135.59996032714844, -75.81797790527344, -170.99758911132812, 9.864357948303223, -0.6044805645942688, -1.6067122220993042, 5.902522087097168, -2.924839735031128, 25.83035659790039, 
412, 352062424, -135.039306640625, -75.67696380615234, -171.5485382080078, 9.837444305419922, -0.6124559044837952, -1.600217580795288, 5.809747219085693, -2.9225218296051025, 25.134931564331055, 
413, 352070757, -134.48561096191406, -75.51980590820312, -172.07260131835938, 9.827149391174316, -0.6023436784744263, -1.6018263101577759, 5.750040054321289, -2.853747606277466, 24.470266342163086, 
414, 352079090, -133.97666931152344, -75.38448333740234, -172.57119750976562, 9.820353507995605, -0.5937967896461487, -1.5865075588226318, 5.6481218338012695, -2.888685703277588, 23.895483016967773, 
415, 352087423, -133.47439575195312, -75.23221588134766, -173.044189453125, 9.810527801513672, -0.5887351036071777, -1.5851978063583374, 5.584482669830322, -2.918820381164551, 23.229576110839844, 
416, 352095756, -133.0175018310547, -75.10433197021484, -173.49012756347656, 9.811396598815918, -0.582004964351654, -1.5905752182006836, 5.5637993812561035, -2.874802350997925, 22.440052032470703, 
417, 352104089, -132.5676727294922, -74.96006774902344, -173.9105987548828, 9.810240745544434, -0.5766534209251404, -1.599108099937439, 5.455167770385742, -2.8927831649780273, 21.638477325439453, 
418, 352112422, -132.16555786132812, -74.84156799316406, -174.30233764648438, 9.767332077026367, -0.5747659802436829, -1.580275297164917, 5.309114933013916, -2.885354995727539, 20.740901947021484, 
419, 352120755, -131.76914978027344, -74.7068862915039, -174.6702880859375, 9.780204772949219, -0.5791499018669128, -1.593630075454712, 5.197488784790039, -2.881025791168213, 19.853445053100586, 
420, 352129088, -131.41757202148438, -74.59811401367188, -175.0109405517578, 9.76518440246582, -0.5788874626159668, -1.5730725526809692, 5.0205841064453125, -2.895843744277954, 19.067920684814453, 
421, 352137421, -131.0664520263672, -74.47402954101562, -175.33392333984375, 9.768848419189453, -0.5563691258430481, -1.5654915571212769, 5.010145664215088, -2.7540817260742188, 18.105758666992188, 
422, 352145754, -130.75924682617188, -74.3776626586914, -175.62838745117188, 9.77047061920166, -0.5842407941818237, -1.5877301692962646, 4.930741786956787, -2.7006759643554688, 17.20570182800293, 
423, 352154087, -130.45474243164062, -74.26533508300781, -175.905029296875, 9.748456954956055, -0.5600847005844116, -1.5827641487121582, 4.818934440612793, -2.6700408458709717, 16.168964385986328, 
424, 352162420, -130.19827270507812, -74.18174743652344, -176.1496124267578, 9.741288185119629, -0.5647348761558533, -1.557137131690979, 4.603569984436035, -2.704031229019165, 15.187477111816406, 
425, 352170753, -129.94125366210938, -74.08206176757812, -176.37974548339844, 9.728468894958496, -0.5564678311347961, -1.562811255455017, 4.5201191902160645, -2.6358206272125244, 14.121027946472168, 
426, 352179086, -129.7301483154297, -74.0125732421875, -176.58047485351562, 9.711274147033691, -0.5594091415405273, -1.5675930976867676, 4.322109222412109, -2.587345838546753, 13.126235961914062, 
427, 352187419, -129.5169219970703, -73.92677307128906, -176.7686767578125, 9.714375495910645, -0.5458802580833435, -1.5658782720565796, 4.131601810455322, -2.4769225120544434, 12.016637802124023, 
428, 352195752, -129.35107421875, -73.87318420410156, -176.92601013183594, 9.728034973144531, -0.526007354259491, -1.5360502004623413, 4.12394380569458, -2.417484760284424, 10.84793758392334, 
429, 352204085, -129.18023681640625, -73.8022232055664, -177.0719757080078, 9.709820747375488, -0.5331704020500183, -1.5294506549835205, 3.933117151260376, -2.33774733543396, 9.800238609313965, 
430, 352212418, -129.05767822265625, -73.76441192626953, -177.18502807617188, 9.701493263244629, -0.5460669994354248, -1.5692408084869385, 3.7238998413085938, -2.2376978397369385, 8.642729759216309, 
431, 352220751, -128.9326629638672, -73.70848083496094, -177.2862091064453, 9.694018363952637, -0.5319217443466187, -1.5442835092544556, 3.608687400817871, -2.3032450675964355, 7.47884464263916, 
432, 352229084, -128.8563995361328, -73.68714141845703, -177.35482788085938, 9.684138298034668, -0.5285388827323914, -1.535635232925415, 3.555845260620117, -2.1872127056121826, 6.252333641052246, 
433, 352237417, -128.77169799804688, -73.64694213867188, -177.4166259765625, 9.698569297790527, -0.5582951307296753, -1.513987421989441, 3.3180932998657227, -2.1265318393707275, 5.196897029876709, 
434, 352245750, -128.73915100097656, -73.64285278320312, -177.4402313232422, 9.69776725769043, -0.5409870147705078, -1.5377002954483032, 3.2792882919311523, -2.0197978019714355, 3.8432881832122803, 
435, 352254083, -128.69677734375, -73.62024688720703, -177.4602508544922, 9.698771476745605, -0.5470601916313171, -1.5218284130096436, 3.0460453033447266, -1.9045850038528442, 2.6851916313171387, 
436, 352262416, -128.70376586914062, -73.63317108154297, -177.44911193847656, 9.702642440795898, -0.5304586887359619, -1.5340406894683838, 2.9507083892822266, -1.7510018348693848, 1.5543739795684814, 
437, 352270749, -128.6971435546875, -73.62684631347656, -177.4343719482422, 9.702011108398438, -0.5389490723609924, -1.5516587495803833, 2.776045560836792, -1.6009538173675537, 0.42622092366218567, 
438, 352279082, -128.74794006347656, -73.65771484375, -177.37840270996094, 9.705578804016113, -0.545480489730835, -1.5267562866210938, 2.639495611190796, -1.5447304248809814, -0.9130065441131592, 
439, 352287415, -128.78750610351562, -73.66812896728516, -177.3182373046875, 9.70958423614502, -0.5497928261756897, -1.5372962951660156, 2.463115930557251, -1.544602394104004, -2.088289976119995, 
440, 352295748, -128.88209533691406, -73.71525573730469, -177.22132873535156, 9.709493637084961, -0.5289272665977478, -1.5350135564804077, 2.3437283039093018, -1.4300813674926758, -3.230966806411743, 
441, 352304081, -128.96218872070312, -73.74178314208984, -177.12110900878906, 9.713362693786621, -0.5427786111831665, -1.5376152992248535, 2.224391460418701, -1.373281717300415, -4.424346446990967, 
442, 352312414, -129.09803771972656, -73.80647277832031, -176.98355102539062, 9.708638191223145, -0.5460330843925476, -1.523720383644104, 2.2274138927459717, -1.1606707572937012, -5.628741264343262, 
443, 352320747, -129.21734619140625, -73.84972381591797, -176.8453826904297, 9.706727027893066, -0.546223521232605, -1.5401710271835327, 1.9049562215805054, -1.0554728507995605, -6.764834403991699, 
444, 352329080, -129.3970947265625, -73.92926025390625, -176.66575622558594, 9.719210624694824, -0.5371056795120239, -1.5109002590179443, 1.8092873096466064, -1.036774754524231, -7.7645087242126465, 
445, 352337413, -129.55801391601562, -73.98815155029297, -176.48727416992188, 9.70096206665039, -0.5569601058959961, -1.5266509056091309, 1.5807057619094849, -0.8313997387886047, -9.036920547485352, 
446, 352345746, -129.783203125, -74.08358764648438, -176.2657928466797, 9.72864818572998, -0.5673374533653259, -1.5338846445083618, 1.5487136840820312, -0.8462047576904297, -10.030061721801758, 
447, 352354079, -129.98655700683594, -74.1563720703125, -176.0438690185547, 9.730114936828613, -0.5608500838279724, -1.5203121900558472, 1.5270694494247437, -0.7530457377433777, -11.183905601501465, 
448, 352362412, -130.25518798828125, -74.26685333251953, -175.779541015625, 9.74160385131836, -0.5458078384399414, -1.523998737335205, 1.4088853597640991, -0.5986174941062927, -12.173510551452637, 
449, 352370745, -130.50149536132812, -74.35374450683594, -175.51608276367188, 9.754948616027832, -0.5472821593284607, -1.5337249040603638, 1.2028191089630127, -0.5239264965057373, -13.282941818237305, 
450, 352379078, -130.81703186035156, -74.47862243652344, -175.20712280273438, 9.761604309082031, -0.5624798536300659, -1.526567816734314, 1.0763614177703857, -0.3486994206905365, -14.257460594177246, 
451, 352387411, -131.1055145263672, -74.57779693603516, -174.9021453857422, 9.76166820526123, -0.5630965232849121, -1.5603220462799072, 0.9903745651245117, -0.3419116735458374, -15.181879997253418, 
452, 352395744, -131.46910095214844, -74.71516418457031, -174.5481719970703, 9.761869430541992, -0.5773970484733582, -1.5649127960205078, 0.7585272192955017, -0.15660545229911804, -16.161663055419922, 
453, 352404077, -131.80511474609375, -74.82626342773438, -174.19561767578125, 9.788785934448242, -0.5768425464630127, -1.5523556470870972, 0.8419530391693115, -0.22537975013256073, -17.1304988861084, 
454, 352412410, -132.21922302246094, -74.97437286376953, -173.79293823242188, 9.801983833312988, -0.5876442790031433, -1.560181975364685, 0.6667643785476685, -0.07590781152248383, -17.956417083740234, 
455, 352420743, -132.6016845703125, -75.0957260131836, -173.3946990966797, 9.816064834594727, -0.5758655071258545, -1.5738792419433594, 0.6263578534126282, -0.07205286622047424, -18.851314544677734, 
456, 352429076, -133.06893920898438, -75.25373077392578, -172.9401092529297, 9.806166648864746, -0.5823519229888916, -1.5586615800857544, 0.4415254592895508, 0.043582625687122345, -19.661977767944336, 
457, 352437409, -133.49594116210938, -75.38442993164062, -172.49842834472656, 9.811646461486816, -0.5757753849029541, -1.5453318357467651, 0.39830145239830017, 0.1922605037689209, -20.398962020874023, 
458, 352445742, -134.01394653320312, -75.55046844482422, -171.9951629638672, 9.82172966003418, -0.5886535048484802, -1.5697060823440552, 0.3019919693470001, 0.20166096091270447, -21.11829376220703, 
459, 352454075, -134.4937286376953, -75.6884536743164, -171.50177001953125, 9.829646110534668, -0.6081787943840027, -1.5772922039031982, 0.1514442414045334, 0.23399895429611206, -21.881559371948242, 
460, 352462408, -135.06773376464844, -75.8609619140625, -170.94375610351562, 9.825431823730469, -0.6202809810638428, -1.6016089916229248, 0.10519770532846451, 0.28075772523880005, -22.48657989501953, 
461, 352470741, -135.59283447265625, -76.00492095947266, -170.40440368652344, 9.832412719726562, -0.6046368479728699, -1.5627361536026, 0.1585777997970581, 0.4321635961532593, -23.08198356628418, 
462, 352479074, -136.22256469726562, -76.18157958984375, -169.7908935546875, 9.838465690612793, -0.6229041218757629, -1.5583274364471436, 0.045503709465265274, 0.3149399757385254, -23.631778717041016, 
463, 352487407, -136.8036651611328, -76.32865142822266, -169.1962127685547, 9.855381965637207, -0.6045443415641785, -1.5713157653808594, -0.01303765270859003, 0.33899176120758057, -24.192859649658203, 
464, 352495740, -137.49679565429688, -76.50790405273438, -168.5193328857422, 9.881185531616211, -0.6370394229888916, -1.5528004169464111, -0.13133706152439117, 0.2412606179714203, -24.739408493041992, 
465, 352504073, -138.12989807128906, -76.65758514404297, -167.87403869628906, 9.858207702636719, -0.6231309771537781, -1.5604990720748901, -0.24736957252025604, 0.43580079078674316, -25.10637855529785, 
466, 352512406, -138.8713836669922, -76.83898162841797, -167.15133666992188, 9.891706466674805, -0.6370483040809631, -1.5870091915130615, -0.12147558480501175, 0.5446102023124695, -25.46734046936035, 
467, 352520739, -139.55784606933594, -76.9885025024414, -166.45272827148438, 9.895596504211426, -0.6348437666893005, -1.6210124492645264, -0.2873534560203552, 0.38815832138061523, -25.828012466430664, 
468, 352529072, -140.36085510253906, -77.16805267333984, -165.6686248779297, 9.916906356811523, -0.630730152130127, -1.6102235317230225, -0.21706797182559967, 0.4148227274417877, -26.10590171813965, 
469, 352537405, -141.0967254638672, -77.31676483154297, -164.91943359375, 9.901966094970703, -0.6327633857727051, -1.6132410764694214, -0.19273442029953003, 0.4336749017238617, -26.380847930908203, 
470, 352545738, -141.96102905273438, -77.49303436279297, -164.07379150390625, 9.889972686767578, -0.6529334187507629, -1.624315619468689, -0.21882252395153046, 0.2853555381298065, -26.610977172851562, 
471, 352554071, -142.7477569580078, -77.63762664794922, -163.27520751953125, 9.898387908935547, -0.6636669039726257, -1.6561256647109985, -0.386992871761322, 0.31567004323005676, -26.643722534179688, 
472, 352562404, -143.6639862060547, -77.80885314941406, -162.37777709960938, 9.912738800048828, -0.6794329285621643, -1.6481237411499023, -0.26759207248687744, 0.2750970721244812, -26.76945686340332, 
473, 352570737, -144.49423217773438, -77.9488525390625, -161.53475952148438, 9.944189071655273, -0.6772831082344055, -1.5796093940734863, -0.27210021018981934, 0.3198836147785187, -26.757366180419922, 
474, 352579070, -145.45809936523438, -78.11292266845703, -160.5898895263672, 9.932997703552246, -0.6939603090286255, -1.5933197736740112, -0.2285943478345871, 0.1917482614517212, -26.696359634399414, 
475, 352587403, -146.32997131347656, -78.2461929321289, -159.70486450195312, 9.932204246520996, -0.7027563452720642, -1.5965090990066528, -0.20479872822761536, 0.22094853222370148, -26.6777400970459, 
476, 352595736, -147.33663940429688, -78.4023208618164, -158.7171173095703, 9.912821769714355, -0.7267416715621948, -1.6062500476837158, -0.29692041873931885, 0.18095187842845917, -26.475479125976562, 
477, 352604069, -148.24075317382812, -78.52767944335938, -157.80026245117188, 9.918107986450195, -0.7296891808509827, -1.6262420415878296, -0.2232537865638733, 0.16525033116340637, -26.31654167175293, 
478, 352612402, -149.28138732910156, -78.67387390136719, -156.7794189453125, 9.939364433288574, -0.7201862931251526, -1.631575584411621, -0.217080757021904, 0.08822828531265259, -25.998464584350586, 
479, 352620735, -150.20814514160156, -78.78971862792969, -155.83950805664062, 9.920310974121094, -0.710784912109375, -1.616463303565979, -0.12092488259077072, 0.05930979549884796, -25.71245574951172, 
480, 352629068, -151.27490234375, -78.92516326904297, -154.79000854492188, 9.914849281311035, -0.7474995255470276, -1.6086225509643555, 0.04520915076136589, -0.021093333140015602, -25.395029067993164, 
481, 352637401, -152.2155303955078, -79.0306625366211, -153.8355255126953, 9.923864364624023, -0.7411730289459229, -1.6107844114303589, 0.04295509308576584, -0.052829381078481674, -24.9525146484375, 
482, 352645734, -153.29713439941406, -79.15436553955078, -152.7709197998047, 9.912821769714355, -0.7604345083236694, -1.6212379932403564, 0.03596239909529686, -0.13581953942775726, -24.527881622314453, 
483, 352654067, -154.23947143554688, -79.25030517578125, -151.81515502929688, 9.915311813354492, -0.7808743715286255, -1.627160906791687, 0.08672983944416046, -0.011782554909586906, -24.02544593811035, 
484, 352662400, -155.32118225097656, -79.3621826171875, -150.75039672851562, 9.91627311706543, -0.7669119238853455, -1.596850872039795, 0.1915305256843567, -0.18329553306102753, -23.47532844543457, 
485, 352670733, -156.25836181640625, -79.44609832763672, -149.7993621826172, 9.917136192321777, -0.7766047120094299, -1.6352607011795044, 0.22349709272384644, -0.2751738429069519, -22.91965103149414, 
486, 352679066, -157.32518005371094, -79.54503631591797, -148.74827575683594, 9.90273666381836, -0.7628512978553772, -1.5911177396774292, 0.33612295985221863, -0.32965537905693054, -22.160140991210938, 
487, 352687399, -158.23622131347656, -79.61668395996094, -147.82308959960938, 9.905714988708496, -0.7823020219802856, -1.632128357887268, 0.39183399081230164, -0.48790016770362854, -21.485204696655273, 
488, 352695732, -159.2755126953125, -79.70325469970703, -146.79913330078125, 9.909733772277832, -0.7966217994689941, -1.6220818758010864, 0.5387828350067139, -0.45741915702819824, -20.735395431518555, 
489, 352704065, -160.14686584472656, -79.76422882080078, -145.91236877441406, 9.889897346496582, -0.7819348573684692, -1.6310673952102661, 0.6733088493347168, -0.576551079750061, -19.963741302490234, 
490, 352712398, -161.14410400390625, -79.83798217773438, -144.9295196533203, 9.876700401306152, -0.7867127060890198, -1.6202654838562012, 0.7245116829872131, -0.671093225479126, -19.116369247436523, 
491, 352720731, -161.96632385253906, -79.8876953125, -144.0919189453125, 9.886999130249023, -0.7979097366333008, -1.618019938468933, 0.8118688464164734, -0.8033521175384521, -18.2997989654541, 
492, 352729064, -162.91055297851562, -79.94975280761719, -143.161865234375, 9.898571014404297, -0.7812153697013855, -1.6200610399246216, 0.8765065670013428, -0.8756741285324097, -17.42196273803711, 
493, 352737397, -163.66650390625, -79.98912811279297, -142.38937377929688, 9.889738082885742, -0.8007780313491821, -1.609676718711853, 1.124490737915039, -0.9757744669914246, -16.450515747070312, 
494, 352745730, -164.53732299804688, -80.03964233398438, -141.5305633544922, 9.8712797164917, -0.8082020282745361, -1.6313822269439697, 1.3231805562973022, -1.1235302686691284, -15.478673934936523, 
495, 352754063, -165.21617126464844, -80.07090759277344, -140.8344268798828, 9.883928298950195, -0.8253235816955566, -1.642744779586792, 1.3812988996505737, -1.012927770614624, -14.52577018737793, 
496, 352762396, -166.00588989257812, -80.1123275756836, -140.0575408935547, 9.868778228759766, -0.8161129951477051, -1.65188467502594, 1.352931261062622, -1.1842231750488281, -13.484870910644531, 
497, 352770729, -166.6019744873047, -80.13542938232422, -139.44447326660156, 9.875577926635742, -0.8466514348983765, -1.6176576614379883, 1.5124567747116089, -1.1737982034683228, -12.52805233001709, 
498, 352779062, -167.29928588867188, -80.16791534423828, -138.75611877441406, 9.861357688903809, -0.8642476797103882, -1.672851324081421, 1.7204443216323853, -1.376585841178894, -11.4003324508667, 
499, 352787395, -167.79298400878906, -80.1816635131836, -138.243896484375, 9.876762390136719, -0.8482743501663208, -1.659192442893982, 1.900794267654419, -1.5224592685699463, -10.205840110778809, 
500, 352795728, -168.3810577392578, -80.20587921142578, -137.66490173339844, 9.868775367736816, -0.8418843150138855, -1.6440165042877197, 2.0526866912841797, -1.5559370517730713, -9.050817489624023, 
501, 352804061, -168.7689666748047, -80.2116470336914, -137.25804138183594, 9.863085746765137, -0.8490972518920898, -1.6511820554733276, 2.1498794555664062, -1.8473881483078003, -7.877414226531982, 
502, 352812394, -169.25230407714844, -80.228271484375, -136.78269958496094, 9.865107536315918, -0.8620834946632385, -1.658313512802124, 2.2741470336914062, -1.8322885036468506, -6.841279983520508, 
503, 352820727, -169.5303192138672, -80.22845458984375, -136.48426818847656, 9.844388008117676, -0.8725336790084839, -1.6101027727127075, 2.5226054191589355, -1.9808001518249512, -5.573171138763428, 
504, 352829060, -169.89793395996094, -80.23867797851562, -136.0990447998047, 9.819731712341309, -0.8504595756530762, -1.6438016891479492, 2.5274462699890137, -2.0363829135894775, -4.481492519378662, 
505, 352837393, -170.06309509277344, -80.23285675048828, -135.91294860839844, 9.824677467346191, -0.8575829863548279, -1.6444950103759766, 2.7710120677948, -2.2303595542907715, -3.1935315132141113, 
506, 352845726, -170.3069610595703, -80.23779296875, -135.64974975585938, 9.834589958190918, -0.8742222189903259, -1.6196156740188599, 2.9152584075927734, -2.178657054901123, -2.011549949645996, 
507, 352854059, -170.3543243408203, -80.22750854492188, -135.58094787597656, 9.85245132446289, -0.8572019934654236, -1.6293216943740845, 3.0401535034179688, -2.3332645893096924, -0.7566316723823547, 
508, 352862392, -170.47377014160156, -80.22647857666016, -135.44137573242188, 9.836868286132812, -0.8537461757659912, -1.613040566444397, 3.222385883331299, -2.414577007293701, 0.4899618625640869, 
509, 352870725, -170.40545654296875, -80.21308898925781, -135.48683166503906, 9.845833778381348, -0.8607009649276733, -1.5986602306365967, 3.4047083854675293, -2.3158342838287354, 1.604309320449829, 
510, 352879058, -170.40892028808594, -80.20762634277344, -135.48532104492188, 9.858492851257324, -0.8454132676124573, -1.6147345304489136, 3.5380172729492188, -2.515176773071289, 2.7974331378936768, 
511, 352887391, -170.22439575195312, -80.18929290771484, -135.64698791503906, 9.845169067382812, -0.8674122095108032, -1.5906364917755127, 3.6344547271728516, -2.5066986083984375, 4.052120208740234, 
512, 352895724, -170.10292053222656, -80.17937469482422, -135.7701873779297, 9.84459114074707, -0.8528633713722229, -1.604370355606079, 3.8303399085998535, -2.5989229679107666, 5.305668830871582, 
513, 352904057, -169.8001708984375, -80.15593719482422, -136.04971313476562, 9.86062240600586, -0.8492730259895325, -1.5894017219543457, 3.8870503902435303, -2.6707966327667236, 6.5637383460998535, 
514, 352912390, -169.55703735351562, -80.14214324951172, -136.27035522460938, 9.872804641723633, -0.861607015132904, -1.5691280364990234, 4.108459949493408, -2.6138052940368652, 7.759410858154297, 
515, 352920723, -169.1465301513672, -80.11531066894531, -136.65589904785156, 9.87999153137207, -0.8674375414848328, -1.5707755088806152, 4.2705464363098145, -2.603482246398926, 8.832109451293945, 
516, 352929056, -168.7914581298828, -80.09716796875, -137.01028442382812, 9.880943298339844, -0.8549474477767944, -1.5612835884094238, 4.413192272186279, -2.5821714401245117, 10.05152702331543, 
517, 352937389, -168.2729034423828, -80.06459045410156, -137.5038604736328, 9.876304626464844, -0.8488698601722717, -1.5558167695999146, 4.4994096755981445, -2.705913543701172, 11.217485427856445, 
518, 352945722, -167.80429077148438, -80.0421142578125, -137.97344970703125, 9.881112098693848, -0.8474445939064026, -1.531798243522644, 4.592607021331787, -2.482032537460327, 12.434610366821289, 
519, 352954055, -167.18722534179688, -80.00554656982422, -138.56536865234375, 9.877202987670898, -0.8511950969696045, -1.5568991899490356, 4.720946788787842, -2.5195698738098145, 13.407759666442871, 
520, 352962388, -166.62295532226562, -79.9775390625, -139.12905883789062, 9.8915433883667, -0.8370070457458496, -1.5690383911132812, 4.899504661560059, -2.4685466289520264, 14.496289253234863, 
521, 352970721, -165.91433715820312, -79.93580627441406, -139.81121826171875, 9.898000717163086, -0.8354111313819885, -1.5591024160385132, 5.0601959228515625, -2.3852109909057617, 15.506196022033691, 
522, 352979054, -165.26136779785156, -79.9019775390625, -140.4612579345703, 9.882427215576172, -0.8374349474906921, -1.5486029386520386, 5.202688217163086, -2.4141809940338135, 16.47574806213379, 
523, 352987387, -164.465087890625, -79.85318756103516, -141.23052978515625, 9.906929969787598, -0.8288194537162781, -1.5519165992736816, 5.32262659072876, -2.3228530883789062, 17.640180587768555, 
524, 352995720, -163.7228240966797, -79.81243133544922, -141.96945190429688, 9.901870727539062, -0.8180351257324219, -1.5871124267578125, 5.468295574188232, -2.299057722091675, 18.560863494873047, 
525, 353004053, -162.85855102539062, -79.75627899169922, -142.80581665039062, 9.906707763671875, -0.8108370900154114, -1.6002107858657837, 5.583891868591309, -2.253950595855713, 19.444372177124023, 
526, 353012386, -162.04620361328125, -79.70728302001953, -143.61488342285156, 9.898768424987793, -0.8165150880813599, -1.6019372940063477, 5.704010009765625, -2.269690990447998, 20.36040496826172, 
527, 353020719, -161.1159210205078, -79.6414794921875, -144.51585388183594, 9.8866548538208, -0.7952737808227539, -1.6095467805862427, 5.92392110824585, -2.2899646759033203, 21.34105682373047, 
528, 353029052, -160.2432403564453, -79.58363342285156, -145.384521484375, 9.899439811706543, -0.7779408097267151, -1.5945441722869873, 5.898512840270996, -2.2420153617858887, 22.079315185546875, 
529, 353037385, -159.27333068847656, -79.50820922851562, -146.32559204101562, 9.887914657592773, -0.7937160730361938, -1.598366618156433, 5.998153209686279, -2.318755626678467, 22.8177490234375, 
530, 353045718, -158.36293029785156, -79.44046783447266, -147.23220825195312, 9.918383598327637, -0.779235303401947, -1.575657844543457, 6.077595233917236, -2.3278615474700928, 23.454200744628906, 
531, 353054051, -157.361083984375, -79.35542297363281, -148.2052764892578, 9.908790588378906, -0.7858743667602539, -1.6237157583236694, 6.111405849456787, -2.2854697704315186, 24.212968826293945, 
532, 353062384, -156.4154510498047, -79.27791595458984, -149.14645385742188, 9.913603782653809, -0.7613485455513, -1.5973566770553589, 6.2642974853515625, -2.2739946842193604, 24.854787826538086, 
533, 353070717, -155.39340209960938, -79.18224334716797, -150.13890075683594, 9.940441131591797, -0.7489386200904846, -1.6105107069015503, 6.3301777839660645, -2.3188323974609375, 25.471040725708008, 
534, 353079050, -154.42828369140625, -79.09410858154297, -151.09872436523438, 9.920798301696777, -0.7657728791236877, -1.6201499700546265, 6.422645568847656, -2.3326258659362793, 26.06429672241211, 
535, 353087383, -153.3978271484375, -78.9886703491211, -152.09959411621094, 9.92720890045166, -0.7477588653564453, -1.585710883140564, 6.429381847381592, -2.2471766471862793, 26.53912925720215, 
536, 353095716, -152.42654418945312, -78.89128112792969, -153.06614685058594, 9.943756103515625, -0.752143919467926, -1.5663683414459229, 6.564061641693115, -2.2620327472686768, 27.011381149291992, 
537, 353104049, -151.40045166015625, -78.77593231201172, -154.06182861328125, 9.943833351135254, -0.7597583532333374, -1.5635714530944824, 6.608322620391846, -2.249276876449585, 27.4046630859375, 
538, 353112382, -150.4329833984375, -78.66910552978516, -155.02272033691406, 9.929737091064453, -0.7363699078559875, -1.5682116746902466, 6.62202787399292, -2.2278125286102295, 27.836803436279297, 
539, 353120715, -149.4196319580078, -78.5447006225586, -156.00547790527344, 9.941740989685059, -0.7181732654571533, -1.5897860527038574, 6.693312168121338, -2.1793761253356934, 28.117408752441406, 
540, 353129048, -148.4668731689453, -78.4306411743164, -156.9532470703125, 9.933807373046875, -0.7109893560409546, -1.5631937980651855, 6.720360279083252, -2.0455031394958496, 28.354774475097656, 
541, 353137381, -147.47442626953125, -78.2992172241211, -157.91539001464844, 9.930768013000488, -0.7058138847351074, -1.5442191362380981, 6.716530799865723, -1.958901286125183, 28.58600616455078, 
542, 353145714, -146.546142578125, -78.17835235595703, -158.83885192871094, 9.914480209350586, -0.6962951421737671, -1.5624605417251587, 6.706464767456055, -1.9172780513763428, 28.69548225402832, 
543, 353154047, -145.58529663085938, -78.04010009765625, -159.7694854736328, 9.937787055969238, -0.6905883550643921, -1.5427922010421753, 6.739495277404785, -1.8590189218521118, 28.833866119384766, 
544, 353162380, -144.6861114501953, -77.91349029541016, -160.66326904296875, 9.932239532470703, -0.6850332021713257, -1.5197570323944092, 6.826505661010742, -1.785134196281433, 28.87487030029297, 
545, 353170713, -143.76304626464844, -77.77050018310547, -161.55606079101562, 9.943039894104004, -0.6852498054504395, -1.5482186079025269, 6.758039474487305, -1.6724956035614014, 28.82316017150879, 
546, 353179046, -142.90560913085938, -77.6401138305664, -162.40972900390625, 9.93012809753418, -0.6657769083976746, -1.5632046461105347, 6.717670917510986, -1.6369684934616089, 28.687734603881836, 
547, 353187379, -142.02777099609375, -77.49308013916016, -163.25692749023438, 9.91651725769043, -0.651602566242218, -1.5862481594085693, 6.78736686706543, -1.601851463317871, 28.595624923706055, 
548, 353195712, -141.2101593017578, -77.36004638671875, -164.0705108642578, 9.902544975280762, -0.6440525650978088, -1.5659090280532837, 6.830117225646973, -1.4791847467422485, 28.430694580078125, 
549, 353204045, -140.38145446777344, -77.21062469482422, -164.86953735351562, 9.900101661682129, -0.6250888705253601, -1.5627614259719849, 6.649998188018799, -1.5052601099014282, 28.178804397583008, 
550, 353212378, -139.61474609375, -77.07573699951172, -165.63404846191406, 9.902548789978027, -0.6374483108520508, -1.5585548877716064, 6.600562572479248, -1.4621511697769165, 27.919536590576172, 
551, 353220711, -138.83480834960938, -76.92606353759766, -166.38523864746094, 9.889779090881348, -0.6190990209579468, -1.5536922216415405, 6.510707378387451, -1.3044185638427734, 27.573562622070312, 
552, 353229044, -138.116943359375, -76.79216003417969, -167.10052490234375, 9.890155792236328, -0.6193655133247375, -1.5743156671524048, 6.499553680419922, -1.2984892129898071, 27.19574546813965, 
553, 353237377, -137.38902282714844, -76.64326477050781, -167.79974365234375, 9.862689018249512, -0.6210429072380066, -1.5813946723937988, 6.447131633758545, -1.2157162427902222, 26.776878356933594, 
554, 353245710, -136.72178649902344, -76.51097106933594, -168.46420288085938, 9.886969566345215, -0.6198809146881104, -1.5747716426849365, 6.581325531005859, -1.2604901790618896, 26.31346893310547, 
555, 353254043, -136.04635620117188, -76.36422729492188, -169.1103057861328, 9.848156929016113, -0.5922067761421204, -1.5849584341049194, 6.44439172744751, -1.1608633995056152, 25.810226440429688, 
556, 353262376, -135.4341583251953, -76.23573303222656, -169.7217559814453, 9.845918655395508, -0.5960714817047119, -1.569488525390625, 6.307073593139648, -1.1889238357543945, 25.18964195251465, 
557, 353270709, -134.81451416015625, -76.0926513671875, -170.31283569335938, 9.84316635131836, -0.5969628691673279, -1.5924088954925537, 6.257689952850342, -1.1610044240951538, 24.639755249023438, 
558, 353279042, -134.25375366210938, -75.96995544433594, -170.87384033203125, 9.837834358215332, -0.5966656804084778, -1.5447269678115845, 6.167501449584961, -1.0472770929336548, 23.91021156311035, 
559, 353287375, -133.68951416015625, -75.83275604248047, -171.40980529785156, 9.821571350097656, -0.5853849649429321, -1.5662788152694702, 6.111507892608643, -1.1139250993728638, 23.22956085205078, 
560, 353295708, -133.17816162109375, -75.71729278564453, -171.92152404785156, 9.825675010681152, -0.5953854918479919, -1.5756326913833618, 5.995527744293213, -0.890850841999054, 22.5216121673584, 
561, 353304041, -132.66200256347656, -75.58733367919922, -172.41038513183594, 9.814602851867676, -0.5719847083091736, -1.579128384590149, 5.890252113342285, -0.9406704306602478, 21.830432891845703, 
562, 353312374, -132.20529174804688, -75.48011779785156, -172.86932373046875, 9.783500671386719, -0.5708298683166504, -1.5667340755462646, 5.710567474365234, -0.8828333020210266, 20.91092872619629, 
563, 353320707, -131.74290466308594, -75.35983276367188, -173.3056182861328, 9.803455352783203, -0.5851089954376221, -1.5971202850341797, 5.6173834800720215, -0.8185672760009766, 20.0545711517334, 
564, 353329040, -131.33731079101562, -75.2614517211914, -173.71395874023438, 9.75632381439209, -0.5604941844940186, -1.5816419124603271, 5.578372478485107, -0.9112139344215393, 19.25806999206543, 
565, 353337373, -130.92935180664062, -75.15060424804688, -174.09671020507812, 9.776494026184082, -0.5979529619216919, -1.5775349140167236, 5.355566501617432, -0.8838449716567993, 18.246984481811523, 
566, 353345706, -130.574951171875, -75.06375885009766, -174.45584106445312, 9.74738597869873, -0.5808725953102112, -1.5773042440414429, 5.255697250366211, -0.8198863863945007, 17.357582092285156, 
567, 353354039, -130.2152557373047, -74.96372985839844, -174.79112243652344, 9.74936580657959, -0.5606213212013245, -1.5838178396224976, 5.108850002288818, -0.8279035091400146, 16.405193328857422, 
568, 353362372, -129.9115447998047, -74.88887786865234, -175.0995330810547, 9.734224319458008, -0.559291422367096, -1.5639324188232422, 5.031686782836914, -0.8244839310646057, 15.378917694091797, 
569, 353370705, -129.60203552246094, -74.80087280273438, -175.3852081298828, 9.73901653289795, -0.5744497776031494, -1.5805768966674805, 4.876746654510498, -0.83711177110672, 14.371073722839355, 
570, 353379038, -129.3490753173828, -74.73839569091797, -175.64468383789062, 9.711957931518555, -0.5524343252182007, -1.5690507888793945, 4.720627307891846, -0.8935655355453491, 13.356851577758789, 
571, 353387371, -129.0886688232422, -74.66354370117188, -175.88226318359375, 9.718632698059082, -0.5351815819740295, -1.5817033052444458, 4.584308624267578, -0.8275319337844849, 12.240174293518066, 
572, 353395704, -128.88233947753906, -74.61553192138672, -176.0968780517578, 9.695289611816406, -0.5452229976654053, -1.5735491514205933, 4.449065685272217, -0.7852557301521301, 11.187454223632812, 
573, 353404037, -128.6722412109375, -74.55453491210938, -176.28538513183594, 9.742890357971191, -0.5448750853538513, -1.5853711366653442, 4.247199058532715, -0.8742266893386841, 9.999285697937012, 
574, 353412370, -128.5157012939453, -74.52112579345703, -176.45074462890625, 9.651789665222168, -0.5383409857749939, -1.5991088151931763, 4.1370062828063965, -0.8283003568649292, 8.93257999420166, 
575, 353420703, -128.354736328125, -74.47409057617188, -176.59107971191406, 9.719566345214844, -0.5291292071342468, -1.5736571550369263, 3.93918776512146, -0.9631849527359009, 7.751252174377441, 
576, 353429036, -128.24929809570312, -74.45612335205078, -176.70668029785156, 9.707138061523438, -0.5322906374931335, -1.5861613750457764, 3.869901657104492, -0.9030299782752991, 6.548894882202148, 
577, 353437369, -128.1344451904297, -74.42437744140625, -176.80172729492188, 9.69487476348877, -0.5463504195213318, -1.5711016654968262, 3.6598899364471436, -0.9332419633865356, 5.419895172119141, 
578, 353445702, -128.07693481445312, -74.42228698730469, -176.87100219726562, 9.696224212646484, -0.5306729078292847, -1.5931681394577026, 3.5215606689453125, -0.892451286315918, 4.197699546813965, 
579, 353454035, -128.00840759277344, -74.40642547607422, -176.92047119140625, 9.670126914978027, -0.551534116268158, -1.5925991535186768, 3.381591320037842, -0.9014290571212769, 3.0165629386901855, 
580, 353462368, -128.004150390625, -74.41947174072266, -176.93804931640625, 9.680399894714355, -0.5418282747268677, -1.5950310230255127, 3.1689929962158203, -1.0857361555099487, 1.7972739934921265, 
581, 353470701, -127.98534393310547, -74.41854858398438, -176.93927001953125, 9.677523612976074, -0.531584620475769, -1.6294143199920654, 2.9948291778564453, -1.0272846221923828, 0.6546358466148376, 
582, 353479034, -128.02853393554688, -74.44673156738281, -176.91082763671875, 9.688885688781738, -0.539312481880188, -1.5736340284347534, 2.7726125717163086, -1.1222237348556519, -0.47236496210098267, 
583, 353487367, -128.0560302734375, -74.46106719970703, -176.86683654785156, 9.687084197998047, -0.5504754185676575, -1.5925289392471313, 2.676123857498169, -1.0476605892181396, -1.677027940750122, 
584, 353495700, -128.14862060546875, -74.50577545166016, -176.7917938232422, 9.685269355773926, -0.5548632740974426, -1.5708684921264648, 2.4431369304656982, -1.099247694015503, -2.9214441776275635, 
585, 353504033, -128.22592163085938, -74.53518676757812, -176.69873046875, 9.693859100341797, -0.5466235280036926, -1.5973639488220215, 2.3841986656188965, -1.1580835580825806, -4.060534477233887, 
586, 353512366, -128.3680877685547, -74.59541320800781, -176.57492065429688, 9.679057121276855, -0.5472878813743591, -1.5930038690567017, 2.257946252822876, -1.1445081233978271, -5.293706893920898, 
587, 353520699, -128.49343872070312, -74.639404296875, -176.43472290039062, 9.705300331115723, -0.5444211959838867, -1.604784607887268, 2.0897374153137207, -1.2104390859603882, -6.354827404022217, 
588, 353529032, -128.690185546875, -74.71368408203125, -176.25668334960938, 9.693058967590332, -0.5287529230117798, -1.6080642938613892, 1.9043163061141968, -1.3456312417984009, -7.575168132781982, 
589, 353537365, -128.8694610595703, -74.77249908447266, -176.0640411376953, 9.688743591308594, -0.5650745630264282, -1.5743573904037476, 1.70493483543396, -1.3251396417617798, -8.746148109436035, 
590, 353545698, -129.1163330078125, -74.86167907714844, -175.83831787109375, 9.7260103225708, -0.5536198616027832, -1.5926240682601929, 1.5589592456817627, -1.2756528854370117, -9.834778785705566, 
591, 353554031, -129.34339904785156, -74.93286895751953, -175.59759521484375, 9.738025665283203, -0.5375684499740601, -1.5774791240692139, 1.5687439441680908, -1.4300813674926758, -10.811807632446289, 
592, 353562364, -129.6399383544922, -75.03494262695312, -175.32232666015625, 9.72603702545166, -0.5533656477928162, -1.5942842960357666, 1.343851089477539, -1.2877943515777588, -11.883559226989746, 
593, 353570697, -129.9171142578125, -75.11968994140625, -175.0335235595703, 9.723652839660645, -0.5599585175514221, -1.5857897996902466, 1.1627839803695679, -1.3538790941238403, -12.958256721496582, 
594, 353579030, -130.27003479003906, -75.23401641845703, -174.70458984375, 9.737261772155762, -0.562670886516571, -1.6012417078018188, 1.0361472368240356, -1.3781871795654297, -13.968894004821777, 
595, 353587363, -130.59852600097656, -75.330810546875, -174.3649444580078, 9.757708549499512, -0.5792831182479858, -1.5794532299041748, 0.9482391476631165, -1.3550317287445068, -14.981396675109863, 
596, 353595696, -131.00564575195312, -75.45654296875, -173.98257446289062, 9.753682136535645, -0.5642991662025452, -1.5865154266357422, 0.803544282913208, -1.368658423423767, -15.907428741455078, 
597, 353604029, -131.3873748779297, -75.56307983398438, -173.5911102294922, 9.77255916595459, -0.5608723163604736, -1.593700647354126, 0.6305968761444092, -1.43320631980896, -16.783588409423828, 
598, 353612362, -131.8515625, -75.69808959960938, -173.15232849121094, 9.78803825378418, -0.5761384963989258, -1.5991474390029907, 0.6693000793457031, -1.4582059383392334, -17.697046279907227, 
599, 353620695, -132.2838592529297, -75.81404113769531, -172.71055603027344, 9.789201736450195, -0.5663993954658508, -1.5894272327423096, 0.4754771590232849, -1.3757281303405762, -18.484323501586914, 
600, 353629028, -132.8064727783203, -75.95750427246094, -172.21409606933594, 9.793403625488281, -0.572724461555481, -1.558545708656311, 0.3120070695877075, -1.4685797691345215, -19.347270965576172, 
601, 353637361, -133.29429626464844, -76.08106994628906, -171.7178192138672, 9.801777839660645, -0.5912076234817505, -1.591671109199524, 0.2218961864709854, -1.4130738973617554, -20.063316345214844, 
602, 353645694, -133.87469482421875, -76.23114013671875, -171.1640625, 9.819053649902344, -0.5854005217552185, -1.5995781421661377, 0.22995193302631378, -1.4879060983657837, -20.837114334106445, 
603, 353654027, -134.42161560058594, -76.36164855957031, -170.60951232910156, 9.839540481567383, -0.5858076214790344, -1.592658519744873, 0.006787774618715048, -1.424689769744873, -21.62308120727539, 
