sep=,
PacketCounter,SampleTimeFine,Euler_X,Euler_Y,Euler_Z,Acc_X,Acc_Y,Acc_Z,Gyr_X,Gyr_Y,Gyr_Z,
0, 298259808, -154.07666015625, -79.85417175292969, -156.33004760742188, 0, 0, 0, 0, 0, 0, 
1, 298268141, -154.246826171875, -79.8548355102539, -156.13558959960938, 9.84379768371582, -0.7805658578872681, -1.547561526298523, 2.5503711700439453, -1.7189199924468994, -3.7346065044403076, 
2, 298276474, -154.32583618164062, -79.88059997558594, -156.0424041748047, 9.832742691040039, -0.7723054885864258, -1.5773800611495972, 2.61801815032959, -1.723095417022705, -3.1904070377349854, 
3, 298284807, -154.4438018798828, -79.87762451171875, -155.9001922607422, 9.85299301147461, -0.7944769859313965, -1.5701990127563477, 2.6396877765655518, -1.6287834644317627, -2.5446460247039795, 
4, 298293140, -154.39483642578125, -79.88172912597656, -155.9597625732422, 9.861985206604004, -0.7862805724143982, -1.568804144859314, 2.8160674571990967, -1.701015591621399, -1.8447628021240234, 
5, 298301473, -154.45474243164062, -79.87478637695312, -155.87496948242188, 9.837943077087402, -0.7759336829185486, -1.5760093927383423, 2.8276965618133545, -1.522971272468567, -1.2532789707183838, 
6, 298309806, -154.34652709960938, -79.87144470214844, -155.99903869628906, 9.876123428344727, -0.7786697149276733, -1.5926752090454102, 2.864529609680176, -1.5250202417373657, -0.6500380039215088, 
7, 298318139, -154.3507843017578, -79.86024475097656, -155.96920776367188, 9.848379135131836, -0.7753344774246216, -1.5760935544967651, 3.017754077911377, -1.4788892269134521, 0.010258502326905727, 
8, 298326472, -154.22341918945312, -79.84880828857422, -156.0624237060547, 9.85892105102539, -0.7654406428337097, -1.5869680643081665, 3.20222806930542, -1.4144182205200195, 0.70489102602005, 
9, 298334805, -154.1708984375, -79.83416748046875, -156.0884552001953, 9.860511779785156, -0.7838106155395508, -1.5664781332015991, 3.225843667984009, -1.3408026695251465, 1.2604379653930664, 
10, 298343138, -154.01821899414062, -79.82034301757812, -156.208984375, 9.841642379760742, -0.7927851676940918, -1.5827451944351196, 3.346742868423462, -1.3599109649658203, 1.9324272871017456, 
11, 298351471, -153.90548706054688, -79.80134582519531, -156.29449462890625, 9.842769622802734, -0.7658259272575378, -1.5661866664886475, 3.4279913902282715, -1.2542778253555298, 2.633591651916504, 
12, 298359804, -153.71299743652344, -79.78440856933594, -156.48582458496094, 9.85892391204834, -0.7847433686256409, -1.528956413269043, 3.397894859313965, -1.1900373697280884, 3.2629077434539795, 
13, 298368137, -153.54644775390625, -79.76142120361328, -156.62503051757812, 9.845129013061523, -0.7617434859275818, -1.5725343227386475, 3.5400278568267822, -1.1612725257873535, 3.8854615688323975, 
14, 298376470, -153.35208129882812, -79.73542022705078, -156.79202270507812, 9.848200798034668, -0.7830225825309753, -1.5535757541656494, 3.6055498123168945, -1.1962103843688965, 4.585447788238525, 
15, 298384803, -153.0946044921875, -79.7164077758789, -157.02684020996094, 9.854704856872559, -0.7852044105529785, -1.5494294166564941, 3.6920738220214844, -1.188705325126648, 5.193400859832764, 
16, 298393136, -152.82345581054688, -79.6982650756836, -157.28036499023438, 9.849928855895996, -0.763399064540863, -1.5729305744171143, 3.827573537826538, -1.0812538862228394, 5.736936092376709, 
17, 298401469, -152.54965209960938, -79.66577911376953, -157.5254669189453, 9.836156845092773, -0.7636484503746033, -1.5849995613098145, 3.9161739349365234, -1.048339605331421, 6.4693498611450195, 
18, 298409802, -152.25730895996094, -79.64232635498047, -157.79869079589844, 9.85728645324707, -0.7630988359451294, -1.5496388673782349, 3.988097906112671, -1.0142724514007568, 7.067338466644287, 
19, 298418135, -151.93600463867188, -79.60592651367188, -158.0909881591797, 9.858089447021484, -0.7670111656188965, -1.5524736642837524, 4.050161361694336, -0.908101499080658, 7.630570411682129, 
20, 298426468, -151.61767578125, -79.58063507080078, -158.3942413330078, 9.845871925354004, -0.779671311378479, -1.5770937204360962, 4.051723957061768, -0.9310776591300964, 8.23232650756836, 
21, 298434801, -151.25816345214844, -79.53886413574219, -158.72518920898438, 9.857647895812988, -0.7707789540290833, -1.5600165128707886, 4.084177017211914, -0.9644272327423096, 8.719327926635742, 
22, 298443134, -150.91964721679688, -79.50902557373047, -159.03692626953125, 9.86211109161377, -0.7693910598754883, -1.5391508340835571, 4.103772163391113, -0.9659385681152344, 9.291449546813965, 
23, 298451467, -150.51483154296875, -79.46170806884766, -159.41232299804688, 9.85358715057373, -0.7568861246109009, -1.5458563566207886, 4.286094665527344, -0.9327423572540283, 9.949762344360352, 
24, 298459800, -150.14871215820312, -79.43038940429688, -159.75567626953125, 9.852282524108887, -0.7562816143035889, -1.5614595413208008, 4.363244533538818, -0.7646618485450745, 10.368144035339355, 
25, 298468133, -149.71337890625, -79.37857055664062, -160.1617431640625, 9.852962493896484, -0.7645645141601562, -1.540304183959961, 4.34460973739624, -0.8889933228492737, 10.86745548248291, 
26, 298476466, -149.32891845703125, -79.3440170288086, -160.52279663085938, 9.842588424682617, -0.7436022162437439, -1.5689600706100464, 4.523999214172363, -0.7419163584709167, 11.382287979125977, 
27, 298484799, -148.85877990722656, -79.28777313232422, -160.9626007080078, 9.86338996887207, -0.7448133230209351, -1.5552878379821777, 4.5499725341796875, -0.7695541381835938, 11.86611557006836, 
28, 298493132, -148.4667510986328, -79.2501220703125, -161.33489990234375, 9.877110481262207, -0.7264311909675598, -1.5491759777069092, 4.510884761810303, -0.6695818901062012, 12.25243091583252, 
29, 298501465, -147.97120666503906, -79.1895980834961, -161.80010986328125, 9.864333152770996, -0.7567459940910339, -1.567710280418396, 4.618900775909424, -0.6862822771072388, 12.711359977722168, 
30, 298509798, -147.57374572753906, -79.1490249633789, -162.1645965576172, 9.863425254821777, -0.7359097003936768, -1.572545051574707, 4.662777900695801, -0.6741155982017517, 13.030899047851562, 
31, 298518131, -147.0567626953125, -79.08422088623047, -162.65003967285156, 9.865965843200684, -0.7495322227478027, -1.519974946975708, 4.827194690704346, -0.6095420718193054, 13.461088180541992, 
32, 298526464, -146.64903259277344, -79.04116821289062, -163.0312042236328, 9.863239288330078, -0.7198655605316162, -1.5707131624221802, 4.8416924476623535, -0.6080307364463806, 13.823529243469238, 
33, 298534797, -146.11399841308594, -78.9734878540039, -163.53555297851562, 9.876458168029785, -0.7356699109077454, -1.565614104270935, 4.791259288787842, -0.3735581338405609, 14.110157012939453, 
34, 298543130, -145.70767211914062, -78.9282455444336, -163.9196319580078, 9.8663969039917, -0.7312122583389282, -1.551536202430725, 4.776133060455322, -0.50807124376297, 14.424915313720703, 
35, 298551463, -145.16464233398438, -78.8556900024414, -164.43202209472656, 9.858501434326172, -0.7111026048660278, -1.5562028884887695, 4.8238654136657715, -0.455062597990036, 14.703150749206543, 
36, 298559796, -144.7594451904297, -78.81002044677734, -164.8169708251953, 9.86362361907959, -0.691403329372406, -1.5535290241241455, 4.936542987823486, -0.307473361492157, 14.8604736328125, 
37, 298568129, -144.2115936279297, -78.73419952392578, -165.33360290527344, 9.871259689331055, -0.7073355317115784, -1.5739027261734009, 4.937925815582275, -0.39658528566360474, 15.115897178649902, 
38, 298576462, -143.8146209716797, -78.6871109008789, -165.70167541503906, 9.861590385437012, -0.7018881440162659, -1.5451465845108032, 4.940781593322754, -0.27343204617500305, 15.285297393798828, 
39, 298584795, -143.265625, -78.60872650146484, -166.21961975097656, 9.845946311950684, -0.7111243605613708, -1.5196187496185303, 4.942664623260498, -0.2996097803115845, 15.436793327331543, 
40, 298593128, -142.87774658203125, -78.56106567382812, -166.58273315429688, 9.850503921508789, -0.7096086144447327, -1.5512783527374268, 4.957725524902344, -0.229836568236351, 15.544448852539062, 
41, 298601461, -142.33143615722656, -78.48004150390625, -167.09786987304688, 9.876262664794922, -0.6964719295501709, -1.506428599357605, 4.98262357711792, -0.253248006105423, 15.684408187866211, 
42, 298609794, -141.9552459716797, -78.43140411376953, -167.44419860839844, 9.862762451171875, -0.6897498369216919, -1.5509638786315918, 4.985620021820068, -0.2932574450969696, 15.770625114440918, 
43, 298618127, -141.4149627685547, -78.34805297851562, -167.95303344726562, 9.861797332763672, -0.7002535462379456, -1.5365287065505981, 5.020417213439941, -0.22911939024925232, 15.85045337677002, 
44, 298626460, -141.05239868164062, -78.2994155883789, -168.2889404296875, 9.83848762512207, -0.6727158427238464, -1.572373628616333, 4.9942779541015625, -0.23659874498844147, 15.862580299377441, 
45, 298634793, -140.5203857421875, -78.21499633789062, -168.7897186279297, 9.84602165222168, -0.6954259872436523, -1.5813950300216675, 5.00243616104126, -0.12006676197052002, 15.890974998474121, 
46, 298643126, -140.1748504638672, -78.16732025146484, -169.11341857910156, 9.83244800567627, -0.667288601398468, -1.5769354104995728, 4.945802688598633, -0.09030301123857498, 15.812541961669922, 
47, 298651459, -139.66282653808594, -78.08076477050781, -169.59469604492188, 9.832304954528809, -0.6578284502029419, -1.6289961338043213, 4.933942794799805, -0.29698434472084045, 15.79317855834961, 
48, 298659792, -139.34645080566406, -78.03289031982422, -169.88938903808594, 9.82707691192627, -0.6511942744255066, -1.6059556007385254, 4.936709403991699, -0.24245157837867737, 15.61085319519043, 
49, 298668125, -138.85427856445312, -77.94669342041016, -170.3512725830078, 9.821783065795898, -0.6449435353279114, -1.6067311763763428, 4.853847503662109, -0.2680402100086212, 15.50220012664795, 
50, 298676458, -138.5673828125, -77.89836120605469, -170.613525390625, 9.812625885009766, -0.6434186697006226, -1.5983418226242065, 4.864105701446533, -0.47132760286331177, 15.4271879196167, 
51, 298684791, -138.09632873535156, -77.81242370605469, -171.05447387695312, 9.833535194396973, -0.6310676336288452, -1.594269871711731, 4.798135757446289, -0.30584681034088135, 15.187528610229492, 
52, 298693124, -137.8376922607422, -77.76600646972656, -171.2906036376953, 9.818502426147461, -0.6335270404815674, -1.6205971240997314, 4.75807523727417, -0.5233117341995239, 15.057331085205078, 
53, 298701457, -137.39715576171875, -77.68011474609375, -171.7012176513672, 9.8201265335083, -0.6388211250305176, -1.5995471477508545, 4.716516494750977, -0.5556752681732178, 14.707581520080566, 
54, 298709790, -137.1696319580078, -77.63619232177734, -171.90638732910156, 9.801210403442383, -0.6210278272628784, -1.6011157035827637, 4.660536289215088, -0.5977851748466492, 14.533570289611816, 
55, 298718123, -136.75277709960938, -77.55162048339844, -172.29315185546875, 9.814457893371582, -0.6420478820800781, -1.6035526990890503, 4.698420524597168, -0.6142295002937317, 14.235678672790527, 
56, 298726456, -136.5574493408203, -77.51094055175781, -172.46707153320312, 9.810001373291016, -0.6296533346176147, -1.5978617668151855, 4.582745552062988, -0.6964254975318909, 13.896927833557129, 
57, 298734789, -136.1754608154297, -77.42765045166016, -172.81964111328125, 9.801168441772461, -0.6259711384773254, -1.6048775911331177, 4.535948276519775, -0.908959686756134, 13.571755409240723, 
58, 298743122, -136.00973510742188, -77.38957214355469, -172.95956420898438, 9.80446720123291, -0.63343745470047, -1.5970820188522339, 4.533823490142822, -0.8593194484710693, 13.326936721801758, 
59, 298751455, -135.65701293945312, -77.30906677246094, -173.28411865234375, 9.816341400146484, -0.6248030066490173, -1.5955195426940918, 4.333288669586182, -0.9910916090011597, 12.87791633605957, 
60, 298759788, -135.5286102294922, -77.27607727050781, -173.3888397216797, 9.799202919006348, -0.6349053978919983, -1.587547779083252, 4.3609514236450195, -0.9916936159133911, 12.390963554382324, 
61, 298768121, -135.2032470703125, -77.20056915283203, -173.6860809326172, 9.800387382507324, -0.6224609613418579, -1.5952180624008179, 4.259186744689941, -0.9162085056304932, 12.004830360412598, 
62, 298776454, -135.10194396972656, -77.172607421875, -173.76885986328125, 9.80491828918457, -0.6149427890777588, -1.597224473953247, 4.293868064880371, -0.9896957278251648, 11.597997665405273, 
63, 298784787, -134.81192016601562, -77.10026550292969, -174.03196716308594, 9.786540985107422, -0.6381694078445435, -1.6016148328781128, 4.030195236206055, -1.1613624095916748, 11.145190238952637, 
64, 298793120, -134.74668884277344, -77.07693481445312, -174.08038330078125, 9.783608436584473, -0.6321511268615723, -1.5982979536056519, 4.05961275100708, -1.1921122074127197, 10.663552284240723, 
65, 298801453, -134.4854736328125, -77.00993347167969, -174.3135223388672, 9.781728744506836, -0.6159936785697937, -1.5789366960525513, 4.083985328674316, -1.1869510412216187, 10.171387672424316, 
66, 298809786, -134.4508514404297, -76.99256134033203, -174.33372497558594, 9.7799711227417, -0.5964232683181763, -1.5908950567245483, 3.964341402053833, -1.2412787675857544, 9.669554710388184, 
67, 298818119, -134.2240753173828, -76.92979431152344, -174.5334014892578, 9.773119926452637, -0.612226665019989, -1.5996118783950806, 3.875920295715332, -1.4043644666671753, 9.215847969055176, 
68, 298826452, -134.22879028320312, -76.91841125488281, -174.51300048828125, 9.775886535644531, -0.6240655779838562, -1.5941054821014404, 3.7176761627197266, -1.4513412714004517, 8.51704216003418, 
69, 298834785, -134.03292846679688, -76.86225128173828, -174.683349609375, 9.774445533752441, -0.602892279624939, -1.5861822366714478, 3.6031289100646973, -1.369247317314148, 8.115588188171387, 
70, 298843118, -134.07054138183594, -76.85639190673828, -174.6290283203125, 9.75937557220459, -0.6068593263626099, -1.5992223024368286, 3.602334499359131, -1.6261836290359497, 7.479637622833252, 
71, 298851451, -133.9151611328125, -76.80633544921875, -174.75885009765625, 9.753479957580566, -0.6140109300613403, -1.5701292753219604, 3.48581600189209, -1.6247239112854004, 6.845122814178467, 
72, 298859784, -133.98428344726562, -76.80743408203125, -174.67578125, 9.742752075195312, -0.6107005476951599, -1.5781431198120117, 3.412712335586548, -1.652489423751831, 6.329226016998291, 
73, 298868117, -133.8645477294922, -76.76326751708984, -174.7705535888672, 9.764303207397461, -0.6002545952796936, -1.5502451658248901, 3.3112545013427734, -1.806635856628418, 5.681673049926758, 
74, 298876450, -133.97120666503906, -76.7716064453125, -174.65325927734375, 9.756891250610352, -0.6153529286384583, -1.588847279548645, 3.2448370456695557, -1.813423991203308, 5.027306079864502, 
75, 298884783, -133.8794708251953, -76.73457336425781, -174.72024536132812, 9.780665397644043, -0.5819126963615417, -1.5694780349731445, 3.2053909301757812, -1.7587116956710815, 4.542069911956787, 
76, 298893116, -134.0170440673828, -76.7498779296875, -174.5724334716797, 9.758549690246582, -0.6176643967628479, -1.5682910680770874, 3.0829038619995117, -1.8263335227966309, 3.843390703201294, 
77, 298901449, -133.9613800048828, -76.7199478149414, -174.60377502441406, 9.751626968383789, -0.6141048073768616, -1.5470855236053467, 3.035568952560425, -1.8804306983947754, 3.2605388164520264, 
78, 298909782, -134.1370391845703, -76.74286651611328, -174.41748046875, 9.757633209228516, -0.5861623287200928, -1.585923433303833, 3.0139248371124268, -1.979429841041565, 2.437220335006714, 
79, 298918115, -134.11973571777344, -76.72050476074219, -174.41065979003906, 9.747798919677734, -0.5893679857254028, -1.5904583930969238, 2.8889009952545166, -2.0111401081085205, 1.878906488418579, 
80, 298926448, -134.328369140625, -76.74895477294922, -174.19639587402344, 9.759429931640625, -0.5855485796928406, -1.5493240356445312, 2.7027878761291504, -2.114518880844116, 1.350715160369873, 
81, 298934781, -134.3445281982422, -76.73344421386719, -174.15708923339844, 9.7547025680542, -0.6033168435096741, -1.6137546300888062, 2.677276372909546, -2.0744071006774902, 0.6586188077926636, 
82, 298943114, -134.58316040039062, -76.76940155029297, -173.9136962890625, 9.778155326843262, -0.6085606217384338, -1.5745283365249634, 2.65824556350708, -2.04974102973938, 0.09005966037511826, 
83, 298951447, -134.63453674316406, -76.7603759765625, -173.83970642089844, 9.754278182983398, -0.6081046462059021, -1.5384541749954224, 2.497541666030884, -2.213620901107788, -0.5598632097244263, 
84, 298959780, -134.91595458984375, -76.80204010009766, -173.5556182861328, 9.753158569335938, -0.5926259160041809, -1.5768415927886963, 2.442317485809326, -2.3612353801727295, -1.2536247968673706, 
85, 298968113, -134.9993896484375, -76.80081939697266, -173.44964599609375, 9.768288612365723, -0.6029589176177979, -1.5648070573806763, 2.3940727710723877, -2.1619436740875244, -1.847733736038208, 
86, 298976446, -135.3079376220703, -76.85051727294922, -173.14053344726562, 9.757589340209961, -0.5935595035552979, -1.5681313276290894, 2.321981430053711, -2.12899112701416, -2.5031893253326416, 
87, 298984779, -135.42550659179688, -76.85602569580078, -173.00123596191406, 9.761275291442871, -0.6213900446891785, -1.5912883281707764, 2.200749397277832, -2.2028884887695312, -3.0635266304016113, 
88, 298993112, -135.77369689941406, -76.91117095947266, -172.6537322998047, 9.762697219848633, -0.6254672408103943, -1.5426068305969238, 2.127185344696045, -2.3158726692199707, -3.7676620483398438, 
89, 299001445, -135.9254150390625, -76.9223861694336, -172.48057556152344, 9.775370597839355, -0.5988008379936218, -1.5728646516799927, 2.0713977813720703, -2.314361572265625, -4.197391510009766, 
90, 299009778, -136.3012237548828, -76.9830322265625, -172.1038360595703, 9.7716703414917, -0.6093540787696838, -1.5804835557937622, 2.1157615184783936, -2.243333101272583, -4.848071098327637, 
91, 299018111, -136.48983764648438, -77.00162506103516, -171.89431762695312, 9.760522842407227, -0.6058119535446167, -1.5629491806030273, 1.8943779468536377, -2.2957146167755127, -5.509788990020752, 
92, 299026444, -136.90281677246094, -77.06729125976562, -171.48365783691406, 9.793429374694824, -0.6180989146232605, -1.5693079233169556, 1.8710687160491943, -2.3164875507354736, -6.026094913482666, 
93, 299034777, -137.12307739257812, -77.09154510498047, -171.24298095703125, 9.784751892089844, -0.6076568961143494, -1.5521597862243652, 1.756572961807251, -2.2826766967773438, -6.570960521697998, 
94, 299043110, -137.56578063964844, -77.16211700439453, -170.80422973632812, 9.785741806030273, -0.627656102180481, -1.5500032901763916, 1.6818820238113403, -2.216515064239502, -7.054635047912598, 
95, 299051443, -137.8223419189453, -77.1913070678711, -170.5281524658203, 9.772796630859375, -0.6038889288902283, -1.5316272974014282, 1.5577552318572998, -2.369431972503662, -7.650113105773926, 
96, 299059776, -138.3029022216797, -77.26573944091797, -170.0559539794922, 9.797782897949219, -0.6215668320655823, -1.5392723083496094, 1.5782980918884277, -2.3255293369293213, -8.17500114440918, 
97, 299068109, -138.5891876220703, -77.29986572265625, -169.74964904785156, 9.807316780090332, -0.6072664260864258, -1.5501638650894165, 1.5486880540847778, -2.3148741722106934, -8.618026733398438, 
98, 299076442, -139.09840393066406, -77.37700653076172, -169.2470703125, 9.774892807006836, -0.607692539691925, -1.5684467554092407, 1.4846781492233276, -2.311211109161377, -9.01128101348877, 
99, 299084775, -139.4141082763672, -77.41580200195312, -168.91165161132812, 9.804924964904785, -0.6178881525993347, -1.5360530614852905, 1.441415548324585, -2.2232770919799805, -9.526844024658203, 
100, 299093108, -139.95553588867188, -77.49634552001953, -168.3776092529297, 9.807065963745117, -0.6233786344528198, -1.550972819328308, 1.4361389875411987, -2.250274896621704, -9.977193832397461, 
101, 299101441, -140.30184936523438, -77.53861236572266, -168.01210021972656, 9.807271957397461, -0.6140409111976624, -1.540902018547058, 1.3184418678283691, -2.1997125148773193, -10.353007316589355, 
102, 299109774, -140.86993408203125, -77.62141418457031, -167.4534912109375, 9.810667991638184, -0.6290027499198914, -1.5423009395599365, 1.2312763929367065, -2.130195140838623, -10.70338249206543, 
103, 299118107, -141.2421417236328, -77.66754150390625, -167.06216430664062, 9.80714225769043, -0.6391094923019409, -1.547370195388794, 1.264754295349121, -2.026611566543579, -11.113312721252441, 
104, 299126440, -141.84042358398438, -77.75210571289062, -166.47409057617188, 9.789169311523438, -0.6313269734382629, -1.521790623664856, 1.171979308128357, -2.0824499130249023, -11.48466682434082, 
105, 299134773, -142.2424774169922, -77.79985046386719, -166.05313110351562, 9.823208808898926, -0.6456941962242126, -1.5677692890167236, 1.1875272989273071, -2.081221103668213, -11.765119552612305, 
106, 299143106, -142.86634826660156, -77.88542175292969, -165.4407958984375, 9.821760177612305, -0.6131763458251953, -1.55301833152771, 1.2535351514816284, -1.98314368724823, -12.147309303283691, 
107, 299151439, -143.29212951660156, -77.93616485595703, -164.99716186523438, 9.828693389892578, -0.6316283941268921, -1.5611411333084106, 1.0337649583816528, -1.8432132005691528, -12.376684188842773, 
108, 299159772, -143.9405975341797, -78.0226821899414, -164.36195373535156, 9.837837219238281, -0.6313529014587402, -1.5335367918014526, 1.017115831375122, -1.812425136566162, -12.698604583740234, 
109, 299168105, -144.3953094482422, -78.07402038574219, -163.88845825195312, 9.821063041687012, -0.6459565162658691, -1.555881142616272, 1.101438045501709, -1.9128329753875732, -12.939071655273438, 
110, 299176438, -145.0647430419922, -78.15969848632812, -163.23202514648438, 9.849225997924805, -0.6569743156433105, -1.5518546104431152, 1.0703420639038086, -1.7361713647842407, -13.110712051391602, 
111, 299184771, -145.5336456298828, -78.21173858642578, -162.74415588378906, 9.834684371948242, -0.6360567808151245, -1.5044753551483154, 1.1183688640594482, -1.709250807762146, -13.193572998046875, 
112, 299193104, -146.22059631347656, -78.29571533203125, -162.0704803466797, 9.828919410705566, -0.6579180955886841, -1.5134820938110352, 1.0145542621612549, -1.676362156867981, -13.370208740234375, 
113, 299201437, -146.70558166503906, -78.3482894897461, -161.56747436523438, 9.851861953735352, -0.6659775972366333, -1.5165053606033325, 0.9982893466949463, -1.513993501663208, -13.443159103393555, 
114, 299209770, -147.40110778808594, -78.43092346191406, -160.88711547851562, 9.866189956665039, -0.6756250858306885, -1.4915179014205933, 0.9892987012863159, -1.4362287521362305, -13.484294891357422, 
115, 299218103, -147.90020751953125, -78.4834213256836, -160.37020874023438, 9.850655555725098, -0.678905189037323, -1.515575647354126, 0.981435239315033, -1.3368968963623047, -13.626096725463867, 
116, 299226436, -148.60414123535156, -78.56513214111328, -159.67877197265625, 9.858241081237793, -0.6976191997528076, -1.531750202178955, 1.1046651601791382, -1.17877995967865, -13.639850616455078, 
117, 299234769, -149.10757446289062, -78.61642456054688, -159.15695190429688, 9.83678913116455, -0.7004782557487488, -1.4966447353363037, 1.0672428607940674, -1.1633858680725098, -13.53939151763916, 
118, 299243102, -149.81321716308594, -78.6951904296875, -158.4695587158203, 9.862542152404785, -0.6993029117584229, -1.4994817972183228, 1.0577398538589478, -1.0018624067306519, -13.519001960754395, 
119, 299251435, -150.31967163085938, -78.74556732177734, -157.94485473632812, 9.86616039276123, -0.692905843257904, -1.5239251852035522, 1.0807030200958252, -0.9313593506813049, -13.43727970123291, 
120, 299259768, -151.026611328125, -78.82169342041016, -157.25135803222656, 9.851673126220703, -0.7074518203735352, -1.4860416650772095, 1.1315089464187622, -0.832411527633667, -13.423986434936523, 
121, 299268101, -151.53878784179688, -78.8703842163086, -156.7205810546875, 9.853188514709473, -0.7033180594444275, -1.5211238861083984, 1.1344289779663086, -0.830400824546814, -13.348309516906738, 
122, 299276434, -152.24192810058594, -78.94287109375, -156.03182983398438, 9.873682975769043, -0.7020151019096375, -1.5215562582015991, 1.1072779893875122, -0.7029699683189392, -13.162758827209473, 
123, 299284767, -152.74874877929688, -78.9894027709961, -155.5061798095703, 9.871447563171387, -0.71486496925354, -1.5259801149368286, 1.2105802297592163, -0.6536370515823364, -13.015837669372559, 
124, 299293100, -153.44020080566406, -79.05908966064453, -154.83372497558594, 9.853975296020508, -0.7081056237220764, -1.5181777477264404, 1.2162665128707886, -0.4542044997215271, -12.809924125671387, 
125, 299301433, -153.93997192382812, -79.10281372070312, -154.3151397705078, 9.868758201599121, -0.7094595432281494, -1.5289603471755981, 1.2642933130264282, -0.5496816039085388, -12.617036819458008, 
126, 299309766, -154.61439514160156, -79.16840362548828, -153.6554412841797, 9.880631446838379, -0.7207626104354858, -1.5720105171203613, 1.3013440370559692, -0.30793434381484985, -12.2930908203125, 
127, 299318099, -155.09954833984375, -79.20945739746094, -153.15061950683594, 9.855374336242676, -0.7310456037521362, -1.5572561025619507, 1.421884536743164, -0.3948434293270111, -12.098064422607422, 
128, 299326432, -155.7595977783203, -79.26883697509766, -152.5031280517578, 9.850372314453125, -0.7354800701141357, -1.5507757663726807, 1.3481543064117432, -0.4530518352985382, -11.734356880187988, 
129, 299334765, -156.2266387939453, -79.30610656738281, -152.0170440673828, 9.865165710449219, -0.7520853281021118, -1.5422042608261108, 1.4111396074295044, -0.35493648052215576, -11.432735443115234, 
130, 299343098, -156.86187744140625, -79.3614273071289, -151.39500427246094, 9.863324165344238, -0.7312435507774353, -1.5189268589019775, 1.4044287204742432, -0.3153496980667114, -11.102324485778809, 
131, 299351431, -157.30621337890625, -79.39511108398438, -150.9310760498047, 9.857521057128906, -0.7443224191665649, -1.5393400192260742, 1.5435909032821655, -0.31276267766952515, -10.723285675048828, 
132, 299359764, -157.91152954101562, -79.44562530517578, -150.3395538330078, 9.863262176513672, -0.7485495805740356, -1.5495513677597046, 1.5796173810958862, -0.2795282006263733, -10.365287780761719, 
133, 299368097, -158.3221435546875, -79.47534942626953, -149.90977478027344, 9.848938941955566, -0.749642550945282, -1.5594885349273682, 1.5921168327331543, -0.24033838510513306, -9.777670860290527, 
134, 299376430, -158.88455200195312, -79.52017211914062, -149.36000061035156, 9.860559463500977, -0.7559877634048462, -1.5495436191558838, 1.641116976737976, -0.2878015637397766, -9.323890686035156, 
135, 299384763, -159.2625274658203, -79.54473876953125, -148.96156311035156, 9.835433959960938, -0.7571848034858704, -1.5501987934112549, 1.8175349235534668, -0.3904506266117096, -8.85024356842041, 
136, 299393096, -159.78317260742188, -79.58499145507812, -148.4527130126953, 9.850500106811523, -0.7691802382469177, -1.5419682264328003, 1.7919206619262695, -0.2530045807361603, -8.396512031555176, 
137, 299401429, -160.1248321533203, -79.60758972167969, -148.09124755859375, 9.83786392211914, -0.7592591047286987, -1.571027398109436, 1.827396273612976, -0.1889818161725998, -7.960878372192383, 
138, 299409762, -160.598388671875, -79.64241027832031, -147.6293182373047, 9.846938133239746, -0.7737087607383728, -1.5826711654663086, 1.9282397031784058, -0.311968594789505, -7.346227169036865, 
139, 299418095, -160.89801025390625, -79.6602554321289, -147.3089141845703, 9.86400318145752, -0.7612589597702026, -1.5926234722137451, 2.0418901443481445, -0.3007495701313019, -6.8967485427856445, 
140, 299426428, -161.3224334716797, -79.6899642944336, -146.89369201660156, 9.841136932373047, -0.7560105323791504, -1.5755842924118042, 2.155911684036255, -0.4204833209514618, -6.2872700691223145, 
141, 299434761, -161.5738983154297, -79.70394134521484, -146.62078857421875, 9.848470687866211, -0.7823566794395447, -1.5683308839797974, 2.227170705795288, -0.3204340934753418, -5.749960899353027, 
142, 299443094, -161.9396514892578, -79.72984313964844, -146.26461791992188, 9.844151496887207, -0.7769275307655334, -1.6197081804275513, 2.2202672958374023, -0.31376156210899353, -5.084105014801025, 
143, 299451427, -162.1394500732422, -79.74009704589844, -146.04396057128906, 9.834230422973633, -0.7768996953964233, -1.5880509614944458, 2.262531042098999, -0.3501593768596649, -4.520745754241943, 
144, 299459760, -162.44996643066406, -79.7615737915039, -145.7413330078125, 9.842107772827148, -0.7712005972862244, -1.5811655521392822, 2.3820855617523193, -0.3689986765384674, -3.95391583442688, 
145, 299468093, -162.60202026367188, -79.76757049560547, -145.56768798828125, 9.843377113342285, -0.7760981917381287, -1.61209237575531, 2.4531137943267822, -0.47621989250183105, -3.3984200954437256, 
146, 299476426, -162.85069274902344, -79.78413391113281, -145.32716369628906, 9.854714393615723, -0.7862566709518433, -1.5953258275985718, 2.510681390762329, -0.5001947283744812, -2.663393497467041, 
147, 299484759, -162.945068359375, -79.7859878540039, -145.2104949951172, 9.83498764038086, -0.7856742143630981, -1.582350492477417, 2.6561965942382812, -0.5742455720901489, -2.083564281463623, 
148, 299493092, -163.1331787109375, -79.79874420166016, -145.03123474121094, 9.850051879882812, -0.7758802175521851, -1.574562430381775, 2.6312224864959717, -0.5120798349380493, -1.4537873268127441, 
149, 299501425, -163.1693878173828, -79.79716491699219, -144.9725799560547, 9.853187561035156, -0.7730004191398621, -1.5991555452346802, 2.795870542526245, -0.5943911075592041, -0.7804017066955566, 
150, 299509758, -163.2943878173828, -79.8053207397461, -144.85488891601562, 9.834238052368164, -0.7777898907661438, -1.6191928386688232, 2.830321788787842, -0.6643436551094055, -0.16824710369110107, 
151, 299518091, -163.27157592773438, -79.79891967773438, -144.8549041748047, 9.823841094970703, -0.7851701378822327, -1.580639362335205, 2.9512979984283447, -0.790826678276062, 0.5859512686729431, 
152, 299526424, -163.3293914794922, -79.80233001708984, -144.80287170410156, 9.841398239135742, -0.783439040184021, -1.6058847904205322, 3.0962231159210205, -0.7928758859634399, 1.1896532773971558, 
153, 299534757, -163.25523376464844, -79.791748046875, -144.85366821289062, 9.827371597290039, -0.779600203037262, -1.5700939893722534, 3.1262428760528564, -0.9636203646659851, 1.767663836479187, 
154, 299543090, -163.24935913085938, -79.79090118408203, -144.8648681640625, 9.83677864074707, -0.7955740690231323, -1.6091209650039673, 3.2289814949035645, -0.8936934471130371, 2.4907541275024414, 
155, 299551423, -163.11871337890625, -79.77721405029297, -144.97238159179688, 9.822319030761719, -0.7877174019813538, -1.5868275165557861, 3.2135493755340576, -0.9745959639549255, 3.040012836456299, 
156, 299559756, -163.05258178710938, -79.77195739746094, -145.04359436035156, 9.820939064025879, -0.7625445127487183, -1.5679832696914673, 3.297154188156128, -1.0228787660598755, 3.746145725250244, 
157, 299568089, -162.86595153808594, -79.75410461425781, -145.20602416992188, 9.849405288696289, -0.7595571279525757, -1.5833652019500732, 3.4461519718170166, -1.1057664155960083, 4.321441650390625, 
158, 299576422, -162.73843383789062, -79.74468231201172, -145.3377685546875, 9.849296569824219, -0.7788816094398499, -1.6240992546081543, 3.575798749923706, -1.1272056102752686, 5.003126621246338, 
159, 299584755, -162.4923858642578, -79.72216796875, -145.55877685546875, 9.82986068725586, -0.785795271396637, -1.5606825351715088, 3.671967029571533, -1.2377822399139404, 5.703149795532227, 
160, 299593088, -162.30430603027344, -79.7083740234375, -145.74932861328125, 9.849437713623047, -0.7740731835365295, -1.5641396045684814, 3.7762937545776367, -1.2117582559585571, 6.27678108215332, 
161, 299601421, -162.0094451904297, -79.68229675292969, -146.01841735839844, 9.8444242477417, -0.7712807655334473, -1.591989517211914, 3.8615517616271973, -1.2872307300567627, 6.847786903381348, 
162, 299609754, -161.7699432373047, -79.66342163085938, -146.26043701171875, 9.847291946411133, -0.7714645862579346, -1.5907628536224365, 3.888932228088379, -1.4157370328903198, 7.42807674407959, 
163, 299618087, -161.42782592773438, -79.63363647460938, -146.5772705078125, 9.859570503234863, -0.754406750202179, -1.59656822681427, 3.9058890342712402, -1.3176347017288208, 8.006778717041016, 
164, 299626420, -161.13291931152344, -79.61003875732422, -146.87451171875, 9.827424049377441, -0.7644248604774475, -1.5902516841888428, 4.015684127807617, -1.507602572441101, 8.675271034240723, 
165, 299634753, -160.74618530273438, -79.57537841796875, -147.234619140625, 9.846512794494629, -0.7640728950500488, -1.5971386432647705, 4.171842575073242, -1.4583338499069214, 9.130938529968262, 
166, 299643086, -160.40988159179688, -79.54804992675781, -147.57186889648438, 9.856874465942383, -0.7581473588943481, -1.591529369354248, 4.160623073577881, -1.5725220441818237, 9.626060485839844, 
167, 299651419, -159.9835968017578, -79.5083236694336, -147.9726104736328, 9.83071231842041, -0.7599039673805237, -1.5716183185577393, 4.144024848937988, -1.5970091819763184, 10.232784271240234, 
168, 299659752, -159.6042938232422, -79.47689819335938, -148.35348510742188, 9.847926139831543, -0.7551573514938354, -1.5829147100448608, 4.166769981384277, -1.5873783826828003, 10.668739318847656, 
169, 299668085, -159.1385955810547, -79.43294525146484, -148.7926483154297, 9.834061622619629, -0.758150577545166, -1.5817214250564575, 4.362155914306641, -1.6129924058914185, 11.282584190368652, 
170, 299676418, -158.72216796875, -79.396240234375, -149.20921325683594, 9.852005004882812, -0.7495332956314087, -1.5696994066238403, 4.352089881896973, -1.743599772453308, 11.637471199035645, 
171, 299684751, -158.23268127441406, -79.34656524658203, -149.67193603515625, 9.85629940032959, -0.7448223829269409, -1.5847779512405396, 4.453752517700195, -1.8727723360061646, 12.118865013122559, 
172, 299693084, -157.78233337402344, -79.30535125732422, -150.12181091308594, 9.837996482849121, -0.7269012331962585, -1.572773814201355, 4.427651405334473, -1.7859270572662354, 12.565678596496582, 
173, 299701417, -157.26695251464844, -79.2523422241211, -150.6105499267578, 9.860172271728516, -0.7336373329162598, -1.589444637298584, 4.513433933258057, -1.796608328819275, 12.921281814575195, 
174, 299709750, -156.7924346923828, -79.20634460449219, -151.08627319335938, 9.864248275756836, -0.710247278213501, -1.5768547058105469, 4.56855583190918, -1.8984378576278687, 13.322017669677734, 
175, 299718083, -156.25779724121094, -79.148193359375, -151.59364318847656, 9.839029312133789, -0.7286068201065063, -1.565722107887268, 4.655489444732666, -1.938702940940857, 13.677181243896484, 
176, 299726416, -155.76866149902344, -79.09667205810547, -152.08181762695312, 9.85283374786377, -0.7261276245117188, -1.5686547756195068, 4.683435916900635, -2.152813196182251, 13.961581230163574, 
177, 299734749, -155.22201538085938, -79.03441619873047, -152.60208129882812, 9.861310005187988, -0.720547616481781, -1.5718533992767334, 4.6044158935546875, -1.9785336256027222, 14.289159774780273, 
178, 299743082, -154.71681213378906, -78.9804916381836, -153.10757446289062, 9.8693265914917, -0.7197110652923584, -1.5855636596679688, 4.645949363708496, -1.9993964433670044, 14.529459953308105, 
179, 299751415, -154.16314697265625, -78.91343688964844, -153.63409423828125, 9.856926918029785, -0.6985532641410828, -1.582108736038208, 4.744654178619385, -2.1280953884124756, 14.817788124084473, 
180, 299759748, -153.64785766601562, -78.85504150390625, -154.14996337890625, 9.846943855285645, -0.7001352310180664, -1.5824264287948608, 4.756871223449707, -2.090134859085083, 15.070906639099121, 
181, 299768081, -153.09266662597656, -78.78484344482422, -154.67742919921875, 9.847877502441406, -0.6872531771659851, -1.5531375408172607, 4.848340034484863, -2.1315271854400635, 15.168599128723145, 
182, 299776414, -152.579833984375, -78.72282409667969, -155.18869018554688, 9.84050178527832, -0.7016984224319458, -1.567335844039917, 4.815092086791992, -2.2167201042175293, 15.34894847869873, 
183, 299784747, -152.02687072753906, -78.649169921875, -155.71519470214844, 9.854033470153809, -0.7060509920120239, -1.577621579170227, 4.7345356941223145, -2.1667983531951904, 15.50629711151123, 
184, 299793080, -151.51345825195312, -78.58545684814453, -156.2266082763672, 9.840169906616211, -0.6937551498413086, -1.5589265823364258, 4.87375020980835, -2.0952067375183105, 15.598408699035645, 
185, 299801413, -150.969482421875, -78.50868225097656, -156.74325561523438, 9.851101875305176, -0.6976866722106934, -1.5379972457885742, 4.852130889892578, -2.258394718170166, 15.650864601135254, 
186, 299809746, -150.46624755859375, -78.44207000732422, -157.2446746826172, 9.856505393981934, -0.6799290776252747, -1.5684759616851807, 4.863786220550537, -2.2135956287384033, 15.715030670166016, 
187, 299818079, -149.92965698242188, -78.36311340332031, -157.7535400390625, 9.856329917907715, -0.6898590326309204, -1.5411574840545654, 4.916295528411865, -2.230398654937744, 15.791131019592285, 
188, 299826412, -149.43768310546875, -78.29521179199219, -158.24424743652344, 9.856645584106445, -0.6761128306388855, -1.5545974969863892, 4.88192081451416, -2.170409917831421, 15.717488288879395, 
189, 299834745, -148.9145965576172, -78.21475219726562, -158.74034118652344, 9.868651390075684, -0.7095885872840881, -1.5532108545303345, 4.833868980407715, -2.1953840255737305, 15.787517547607422, 
190, 299843078, -148.4322052001953, -78.1456069946289, -159.21966552734375, 9.854267120361328, -0.6699091196060181, -1.577594518661499, 4.874825477600098, -2.1275575160980225, 15.768052101135254, 
191, 299851411, -147.92489624023438, -78.06410217285156, -159.69984436035156, 9.853854179382324, -0.6527078151702881, -1.5747790336608887, 4.8515424728393555, -2.1636221408843994, 15.685469627380371, 
192, 299859744, -147.46719360351562, -77.99357604980469, -160.15480041503906, 9.852409362792969, -0.6497352719306946, -1.5707298517227173, 4.7807698249816895, -2.2773237228393555, 15.51702880859375, 
193, 299868077, -146.98512268066406, -77.91195678710938, -160.60980224609375, 9.843206405639648, -0.6310380697250366, -1.565983533859253, 4.816552639007568, -2.1846511363983154, 15.32400131225586, 
194, 299876410, -146.5482940673828, -77.84269714355469, -161.04444885253906, 9.828047752380371, -0.6437008380889893, -1.5506386756896973, 4.770907878875732, -2.1733808517456055, 15.178869247436523, 
195, 299884743, -146.08868408203125, -77.76187896728516, -161.47706604003906, 9.817033767700195, -0.6306731700897217, -1.535967230796814, 4.788402557373047, -2.10970401763916, 14.9496488571167, 
196, 299893076, -145.67723083496094, -77.69407653808594, -161.88824462890625, 9.826188087463379, -0.6593275666236877, -1.5770182609558105, 4.664737224578857, -2.1200520992279053, 14.726471900939941, 
197, 299901409, -145.246826171875, -77.61351776123047, -162.29190063476562, 9.808077812194824, -0.6376383304595947, -1.526041865348816, 4.7103047370910645, -2.2204344272613525, 14.465002059936523, 
198, 299909742, -144.86065673828125, -77.5470962524414, -162.6763458251953, 9.818894386291504, -0.6219710111618042, -1.5327860116958618, 4.69111967086792, -2.141209363937378, 14.255297660827637, 
199, 299918075, -144.4559783935547, -77.46914672851562, -163.05552673339844, 9.824831008911133, -0.6329026222229004, -1.5550878047943115, 4.530672073364258, -2.0676450729370117, 13.89236831665039, 
200, 299926408, -144.0992889404297, -77.40682983398438, -163.40895080566406, 9.816130638122559, -0.6292973756790161, -1.5632438659667969, 4.658025741577148, -1.9797884225845337, 13.501827239990234, 
201, 299934741, -143.72181701660156, -77.33120727539062, -163.7613067626953, 9.805648803710938, -0.6194261312484741, -1.5350046157836914, 4.430367469787598, -2.0225131511688232, 13.27734661102295, 
202, 299943074, -143.3920440673828, -77.27198028564453, -164.0885467529297, 9.816543579101562, -0.6255659461021423, -1.5356369018554688, 4.555031776428223, -1.9190058708190918, 12.877610206604004, 
203, 299951407, -143.0455780029297, -77.20022583007812, -164.4090118408203, 9.803732872009277, -0.6161645650863647, -1.5236942768096924, 4.476164817810059, -1.9477193355560303, 12.422676086425781, 
204, 299959740, -142.74981689453125, -77.1449966430664, -164.70364379882812, 9.807086944580078, -0.6167896389961243, -1.5464266538619995, 4.397939205169678, -1.9193133115768433, 12.025653839111328, 
205, 299968073, -142.43020629882812, -77.07770538330078, -164.997802734375, 9.800399780273438, -0.6209515929222107, -1.5295042991638184, 4.359005451202393, -1.7714678049087524, 11.628326416015625, 
206, 299976406, -142.16432189941406, -77.02837371826172, -165.26148986816406, 9.790996551513672, -0.6110818386077881, -1.5818331241607666, 4.344123840332031, -1.7338917255401611, 11.092988014221191, 
207, 299984739, -141.8766632080078, -76.96534729003906, -165.52427673339844, 9.809266090393066, -0.634752631187439, -1.5269845724105835, 4.2132344245910645, -1.7440091371536255, 10.725114822387695, 
208, 299993072, -141.6410675048828, -76.9202651977539, -165.7592315673828, 9.799124717712402, -0.603459358215332, -1.5131198167800903, 4.15155553817749, -1.7223141193389893, 10.283501625061035, 
209, 300001405, -141.3859405517578, -76.86285400390625, -165.9895782470703, 9.799145698547363, -0.6007986068725586, -1.5372960567474365, 4.115952014923096, -1.6416804790496826, 9.675419807434082, 
210, 300009738, -141.18714904785156, -76.82452392578125, -166.18756103515625, 9.791204452514648, -0.6130779981613159, -1.5796911716461182, 4.0467424392700195, -1.6486989259719849, 9.118489265441895, 
211, 300018071, -140.96575927734375, -76.77286529541016, -166.38485717773438, 9.797151565551758, -0.5922896265983582, -1.5486068725585938, 3.952789306640625, -1.5790537595748901, 8.586020469665527, 
212, 300026404, -140.75704956054688, -76.72300720214844, -166.56900024414062, 9.78935718536377, -0.6017792224884033, -1.5431817770004272, 3.9523282051086426, -1.5827933549880981, 8.172146797180176, 
213, 300034737, -140.6056365966797, -76.69501495361328, -166.72073364257812, 9.775602340698242, -0.6245319843292236, -1.5543252229690552, 3.7880635261535645, -1.424497127532959, 7.498182773590088, 
214, 300043070, -140.4683837890625, -76.67035675048828, -166.85748291015625, 9.777058601379395, -0.5954585075378418, -1.5234289169311523, 3.797464370727539, -1.3720650672912598, 7.010258674621582, 
215, 300051403, -140.30955505371094, -76.6316909790039, -166.99273681640625, 9.787595748901367, -0.615397036075592, -1.5337879657745361, 3.7192635536193848, -1.3423010110855103, 6.341085433959961, 
216, 300059736, -140.2082061767578, -76.6139907836914, -167.09376525878906, 9.785930633544922, -0.5902305841445923, -1.5242265462875366, 3.6926252841949463, -1.3496781587600708, 5.8060302734375, 
217, 300068069, -140.0816650390625, -76.58150482177734, -167.1965789794922, 9.772818565368652, -0.5867360830307007, -1.5503240823745728, 3.641550302505493, -1.3265228271484375, 5.200688362121582, 
218, 300076402, -140.0179443359375, -76.57154083251953, -167.26040649414062, 9.768638610839844, -0.5844011902809143, -1.530705213546753, 3.5372745990753174, -1.3080804347991943, 4.512792587280273, 
219, 300084735, -139.92416381835938, -76.54635620117188, -167.33233642578125, 9.771571159362793, -0.6065978407859802, -1.5325902700424194, 3.330695390701294, -1.1936873197555542, 3.991363763809204, 
220, 300093068, -139.89166259765625, -76.54304504394531, -167.36610412597656, 9.76628589630127, -0.5873490571975708, -1.5474742650985718, 3.366914749145508, -1.2638192176818848, 3.4416821002960205, 
221, 300101401, -139.8304901123047, -76.5250473022461, -167.40516662597656, 9.768016815185547, -0.5890665650367737, -1.5493438243865967, 3.2566964626312256, -1.1253999471664429, 2.75053334236145, 
222, 300109734, -139.83462524414062, -76.53022766113281, -167.40289306640625, 9.773616790771484, -0.5889648199081421, -1.5516406297683716, 3.157773971557617, -1.1382580995559692, 2.1068475246429443, 
223, 300118067, -139.80859375, -76.51983642578125, -167.4079132080078, 9.776169776916504, -0.5992186665534973, -1.5484944581985474, 3.025758981704712, -1.037184476852417, 1.4345510005950928, 
224, 300126400, -139.84584045410156, -76.5337905883789, -167.37454223632812, 9.759997367858887, -0.5971630215644836, -1.5438640117645264, 3.030266284942627, -0.9579082131385803, 0.8229341506958008, 
225, 300134733, -139.85289001464844, -76.53071594238281, -167.34652709960938, 9.768906593322754, -0.6075833439826965, -1.5648270845413208, 2.9279634952545166, -0.9649267792701721, 0.16913080215454102, 
226, 300143066, -139.9294891357422, -76.55223846435547, -167.27357482910156, 9.778059005737305, -0.6084728240966797, -1.5608428716659546, 2.8644399642944336, -0.9756335020065308, -0.5051512122154236, 
227, 300151399, -139.97021484375, -76.55589294433594, -167.2122039794922, 9.773582458496094, -0.6062548160552979, -1.53607976436615, 2.776275873184204, -0.9530417323112488, -1.0506832599639893, 
228, 300159732, -140.08253479003906, -76.58487701416016, -167.10472106933594, 9.773897171020508, -0.6001209020614624, -1.5431698560714722, 2.689110517501831, -0.9112647175788879, -1.7487733364105225, 
229, 300168065, -140.15542602539062, -76.596923828125, -167.01165771484375, 9.77477741241455, -0.6028479933738708, -1.5527827739715576, 2.6265347003936768, -0.7445417046546936, -2.3606717586517334, 
230, 300176398, -140.3030242919922, -76.63402557373047, -166.86944580078125, 9.78244686126709, -0.5888906717300415, -1.5829439163208008, 2.6150083541870117, -0.7903143763542175, -3.0340700149536133, 
231, 300184731, -140.40805053710938, -76.65229797363281, -166.74485778808594, 9.792376518249512, -0.6221672892570496, -1.5414000749588013, 2.464550733566284, -0.713574230670929, -3.4973294734954834, 
232, 300193064, -140.5891876220703, -76.69534301757812, -166.5695343017578, 9.766622543334961, -0.5828464031219482, -1.561336874961853, 2.469212532043457, -0.7895973324775696, -4.101876735687256, 
233, 300201397, -140.7296905517578, -76.7195816040039, -166.40977478027344, 9.771554946899414, -0.6168661117553711, -1.5488166809082031, 2.322007417678833, -0.7495878338813782, -4.679938316345215, 
234, 300209730, -140.95030212402344, -76.76959228515625, -166.1962890625, 9.778816223144531, -0.6293206810951233, -1.5460528135299683, 2.2811267375946045, -0.76462322473526, -5.3559746742248535, 
235, 300218063, -141.12521362304688, -76.80036926269531, -166.00201416015625, 9.776841163635254, -0.6051872372627258, -1.5652494430541992, 2.2493906021118164, -0.6834006309509277, -5.891235828399658, 
236, 300226396, -141.3769073486328, -76.85711669921875, -165.7579345703125, 9.779812812805176, -0.6199177503585815, -1.569048285484314, 2.139479875564575, -0.5976185202598572, -6.398704528808594, 
237, 300234729, -141.5857696533203, -76.89239501953125, -165.53004455566406, 9.798721313476562, -0.6071120500564575, -1.5343167781829834, 2.122907876968384, -0.7645977735519409, -6.9100165367126465, 
238, 300243062, -141.87254333496094, -76.95330810546875, -165.25196838378906, 9.787483215332031, -0.5937997698783875, -1.5626428127288818, 2.0589749813079834, -0.6766129732131958, -7.356063365936279, 
239, 300251395, -142.11334228515625, -76.99522399902344, -164.99205017089844, 9.77841854095459, -0.6226540207862854, -1.5454531908035278, 2.047294855117798, -0.5874496698379517, -8.036966323852539, 
240, 300259728, -142.4404754638672, -77.06230163574219, -164.67515563964844, 9.803047180175781, -0.6252662539482117, -1.5494643449783325, 1.804907202720642, -0.611245334148407, -8.515107154846191, 
241, 300268061, -142.71058654785156, -77.10824584960938, -164.3864288330078, 9.780299186706543, -0.6060079336166382, -1.5571120977401733, 1.926908016204834, -0.5486185550689697, -8.894736289978027, 
242, 300276394, -143.0729217529297, -77.17929077148438, -164.03199768066406, 9.808112144470215, -0.6159852147102356, -1.5510777235031128, 1.9212982654571533, -0.6573253273963928, -9.458761215209961, 
243, 300284727, -143.3771514892578, -77.22917938232422, -163.71029663085938, 9.792451858520508, -0.607761800289154, -1.5780264139175415, 1.7187409400939941, -0.5535621047019958, -9.81520938873291, 
244, 300293060, -143.7735595703125, -77.30452728271484, -163.32418823242188, 9.798725128173828, -0.6290649175643921, -1.5711750984191895, 1.69425368309021, -0.5561747550964355, -10.32408618927002, 
245, 300301393, -144.111328125, -77.35782623291016, -162.96852111816406, 9.794733047485352, -0.6302394866943359, -1.554964542388916, 1.6983263492584229, -0.571107804775238, -10.707788467407227, 
246, 300309726, -144.54234313964844, -77.4350357055664, -162.54910278320312, 9.799695014953613, -0.6242968440055847, -1.5659329891204834, 1.5583447217941284, -0.6601430177688599, -11.0294771194458, 
247, 300318059, -144.90805053710938, -77.48965454101562, -162.16676330566406, 9.807083129882812, -0.6291965842247009, -1.5314290523529053, 1.5032994747161865, -0.6380378007888794, -11.284005165100098, 
248, 300326392, -145.3687744140625, -77.56893920898438, -161.71778869628906, 9.814449310302734, -0.622704267501831, -1.5757007598876953, 1.4735101461410522, -0.6175720691680908, -11.652518272399902, 
249, 300334725, -145.76390075683594, -77.62621307373047, -161.30523681640625, 9.835073471069336, -0.6232292056083679, -1.5920709371566772, 1.5529398918151855, -0.5891914367675781, -12.012397766113281, 
250, 300343058, -146.2523193359375, -77.7067642211914, -160.82858276367188, 9.812097549438477, -0.6494240164756775, -1.571682333946228, 1.5255838632583618, -0.6127821207046509, -12.177556991577148, 
251, 300351391, -146.67605590820312, -77.76457214355469, -160.38795471191406, 9.803704261779785, -0.6306352019309998, -1.5814058780670166, 1.4444125890731812, -0.6702093482017517, -12.540129661560059, 
252, 300359724, -147.19943237304688, -77.84615325927734, -159.87750244140625, 9.84565544128418, -0.6375080943107605, -1.6016772985458374, 1.4430294036865234, -0.645158588886261, -12.830467224121094, 
253, 300368057, -147.64889526367188, -77.9034194946289, -159.41116333007812, 9.832586288452148, -0.6441475749015808, -1.6173919439315796, 1.4044798612594604, -0.7947970032691956, -12.93840503692627, 
254, 300376390, -148.19668579101562, -77.98385620117188, -158.8771209716797, 9.812118530273438, -0.6342446804046631, -1.5830129384994507, 1.3754075765609741, -0.7228721976280212, -13.09938907623291, 
255, 300384723, -148.66539001464844, -78.04094696044922, -158.39161682128906, 9.840144157409668, -0.6581999659538269, -1.5913364887237549, 1.3915703296661377, -0.7545826435089111, -13.22551441192627, 
256, 300393056, -149.24020385742188, -78.11986541748047, -157.83062744140625, 9.803913116455078, -0.6626201272010803, -1.596907377243042, 1.2450311183929443, -0.8328852653503418, -13.400997161865234, 
257, 300401389, -149.7316436767578, -78.17578125, -157.32205200195312, 9.839873313903809, -0.6549725532531738, -1.620556354522705, 1.4083476066589355, -0.8541195392608643, -13.517951965332031, 
258, 300409722, -150.3321075439453, -78.2518081665039, -156.73724365234375, 9.823172569274902, -0.659287691116333, -1.5995984077453613, 1.3450292348861694, -1.0593153238296509, -13.633319854736328, 
259, 300418055, -150.84548950195312, -78.30494689941406, -156.20741271972656, 9.84713363647461, -0.671781063079834, -1.5577095746994019, 1.3181087970733643, -1.062004804611206, -13.691131591796875, 
260, 300426388, -151.45948791503906, -78.37882995605469, -155.60801696777344, 9.845113754272461, -0.6968898177146912, -1.5886344909667969, 1.2940058708190918, -1.0186655521392822, -13.638418197631836, 
261, 300434721, -151.97799682617188, -78.42916107177734, -155.0730438232422, 9.823485374450684, -0.6777817010879517, -1.5611413717269897, 1.3478981256484985, -1.071661353111267, -13.52402400970459, 
262, 300443054, -152.60194396972656, -78.49958038330078, -154.46351623535156, 9.84766960144043, -0.6859137415885925, -1.5733493566513062, 1.3119611740112305, -1.0928955078125, -13.513136863708496, 
263, 300451387, -153.1282958984375, -78.54668426513672, -153.9207763671875, 9.8618745803833, -0.6806629300117493, -1.5867613554000854, 1.357157588005066, -1.160299301147461, -13.399345397949219, 
264, 300459720, -153.75596618652344, -78.61408996582031, -153.30812072753906, 9.851767539978027, -0.703420102596283, -1.602867841720581, 1.3529952764511108, -1.0459316968917847, -13.302242279052734, 
265, 300468053, -154.28292846679688, -78.65745544433594, -152.76348876953125, 9.86560344696045, -0.6979386210441589, -1.5830949544906616, 1.5340880155563354, -1.256135106086731, -13.13345718383789, 
266, 300476386, -154.91671752929688, -78.72020721435547, -152.1432647705078, 9.856184005737305, -0.715292751789093, -1.5964183807373047, 1.410960078239441, -1.215869426727295, -13.08010196685791, 
267, 300484719, -155.43807983398438, -78.76045227050781, -151.60597229003906, 9.831214904785156, -0.7162986397743225, -1.5721683502197266, 1.394362449645996, -1.1888720989227295, -12.729137420654297, 
268, 300493052, -156.06639099121094, -78.81796264648438, -150.99192810058594, 9.872251510620117, -0.698406994342804, -1.5832387208938599, 1.4156990051269531, -1.349345326423645, -12.597607612609863, 
269, 300501385, -156.58135986328125, -78.8540267944336, -150.46075439453125, 9.853665351867676, -0.7272502779960632, -1.581961750984192, 1.466389536857605, -1.2821590900421143, -12.306706428527832, 
270, 300509718, -157.19935607910156, -78.90701293945312, -149.85595703125, 9.863972663879395, -0.7210498452186584, -1.6068611145019531, 1.488315224647522, -1.3942724466323853, -12.086141586303711, 
271, 300518051, -157.70640563964844, -78.93840026855469, -149.33303833007812, 9.848735809326172, -0.7194908857345581, -1.576462984085083, 1.4767504930496216, -1.4442588090896606, -11.835878372192383, 
272, 300526384, -158.3085479736328, -78.98677825927734, -148.743408203125, 9.86221694946289, -0.7185565233230591, -1.6047908067703247, 1.6533092260360718, -1.4254834651947021, -11.500561714172363, 
273, 300534717, -158.7962188720703, -79.01375579833984, -148.23887634277344, 9.855018615722656, -0.719619870185852, -1.5986751317977905, 1.648634672164917, -1.5237780809402466, -11.180037498474121, 
274, 300543050, -159.37454223632812, -79.05673217773438, -147.67323303222656, 9.867852210998535, -0.7337138652801514, -1.579121708869934, 1.7160001993179321, -1.5179636478424072, -10.714908599853516, 
275, 300551383, -159.83433532714844, -79.08021545410156, -147.19615173339844, 9.850481986999512, -0.7521831393241882, -1.5741373300552368, 1.7896925210952759, -1.4588974714279175, -10.394706726074219, 
276, 300559716, -160.38710021972656, -79.11848449707031, -146.6549072265625, 9.876090049743652, -0.7426707744598389, -1.5897252559661865, 1.7971848249435425, -1.5778369903564453, -9.956459045410156, 
277, 300568049, -160.81973266601562, -79.13700103759766, -146.2045440673828, 9.86161994934082, -0.7458048462867737, -1.5815352201461792, 1.9223484992980957, -1.6052314043045044, -9.582708358764648, 
278, 300576382, -161.3350067138672, -79.1711654663086, -145.70155334472656, 9.83650016784668, -0.7654510736465454, -1.5873970985412598, 1.8760637044906616, -1.5333579778671265, -8.986127853393555, 
279, 300584715, -161.72743225097656, -79.18450164794922, -145.2920379638672, 9.837435722351074, -0.7491551637649536, -1.5863960981369019, 1.9657131433486938, -1.7223906517028809, -8.484573364257812, 
280, 300593048, -162.20701599121094, -79.21310424804688, -144.8245849609375, 9.83963680267334, -0.7606459856033325, -1.5654888153076172, 2.045475721359253, -1.7225699424743652, -8.044188499450684, 
281, 300601381, -162.55908203125, -79.22260284423828, -144.4547119140625, 9.847365379333496, -0.7650615572929382, -1.5938928127288818, 2.148970603942871, -1.749554991722107, -7.476104736328125, 
282, 300609714, -162.99264526367188, -79.24720764160156, -144.03375244140625, 9.839107513427734, -0.7550298571586609, -1.5846507549285889, 2.1264808177948, -1.71804940700531, -6.94168758392334, 
283, 300618047, -163.30111694335938, -79.25298309326172, -143.70765686035156, 9.845393180847168, -0.7644400596618652, -1.5571236610412598, 2.240246534347534, -1.771416425704956, -6.401752948760986, 
284, 300626380, -163.6873016357422, -79.27405548095703, -143.3313751220703, 9.83277702331543, -0.7541546821594238, -1.5626709461212158, 2.3287949562072754, -1.70102858543396, -5.86598014831543, 
285, 300634713, -163.9513397216797, -79.27716064453125, -143.0491943359375, 9.840478897094727, -0.7675933241844177, -1.5810341835021973, 2.3980047702789307, -1.7321499586105347, -5.357717037200928, 
286, 300643046, -164.29078674316406, -79.2930679321289, -142.721435546875, 9.847063064575195, -0.7619597911834717, -1.5614049434661865, 2.388091802597046, -1.8990780115127563, -4.741720199584961, 
287, 300651379, -164.4993438720703, -79.29192352294922, -142.49542236328125, 9.864236831665039, -0.769749104976654, -1.577761173248291, 2.4401142597198486, -1.8376290798187256, -4.008922100067139, 
288, 300659712, -164.7798309326172, -79.30526733398438, -142.22674560546875, 9.838957786560059, -0.7583333849906921, -1.5777347087860107, 2.528663158416748, -1.7855300903320312, -3.4589080810546875, 
289, 300668045, -164.9404296875, -79.30009460449219, -142.0480194091797, 9.830401420593262, -0.778679609298706, -1.5819242000579834, 2.63429594039917, -1.9890352487564087, -2.8695502281188965, 
290, 300676378, -165.16741943359375, -79.30846405029297, -141.83155822753906, 9.84677791595459, -0.7824528813362122, -1.5771864652633667, 2.781961679458618, -2.0285065174102783, -2.2492239475250244, 
291, 300684711, -165.26992797851562, -79.29954528808594, -141.71002197265625, 9.812291145324707, -0.7742202281951904, -1.571596622467041, 2.8694472312927246, -2.0860488414764404, -1.5243287086486816, 
292, 300693044, -165.4385986328125, -79.30465698242188, -141.5506591796875, 9.844804763793945, -0.7875220775604248, -1.6037176847457886, 2.9935226440429688, -2.0563619136810303, -0.9886069297790527, 
293, 300701377, -165.49172973632812, -79.29281616210938, -141.47926330566406, 9.847175598144531, -0.7917483448982239, -1.5832958221435547, 2.8976104259490967, -2.1328847408294678, -0.3613784611225128, 
294, 300709710, -165.60191345214844, -79.29595947265625, -141.3772735595703, 9.825833320617676, -0.7673138380050659, -1.5844147205352783, 3.041844367980957, -1.9621914625167847, 0.26964107155799866, 
295, 300718043, -165.59478759765625, -79.2825927734375, -141.36468505859375, 9.8417329788208, -0.78782057762146, -1.5707846879959106, 3.2033417224884033, -1.9902387857437134, 0.9562305212020874, 
296, 300726376, -165.64419555664062, -79.2816162109375, -141.32406616210938, 9.83737564086914, -0.7936913371086121, -1.5725127458572388, 3.2358460426330566, -2.1110100746154785, 1.6161044836044312, 
297, 300734709, -165.5814666748047, -79.2641372680664, -141.36624145507812, 9.845678329467773, -0.7966817617416382, -1.5407170057296753, 3.432307720184326, -2.166477680206299, 2.26747465133667, 
298, 300743042, -165.56759643554688, -79.26087951660156, -141.3882293701172, 9.861319541931152, -0.7869955897331238, -1.5588688850402832, 3.4607906341552734, -2.0559394359588623, 2.9645402431488037, 
299, 300751375, -165.45057678222656, -79.24211883544922, -141.48556518554688, 9.851274490356445, -0.7857285141944885, -1.567490816116333, 3.4480345249176025, -2.010448455810547, 3.510891914367676, 
300, 300759708, -165.38204956054688, -79.23503112792969, -141.56207275390625, 9.840264320373535, -0.7811445593833923, -1.5616921186447144, 3.5871710777282715, -2.182781219482422, 4.186544418334961, 
301, 300768041, -165.20570373535156, -79.21320343017578, -141.7183380126953, 9.840709686279297, -0.7750663757324219, -1.547683596611023, 3.632354736328125, -2.024920701980591, 4.89964485168457, 
302, 300776374, -165.07687377929688, -79.20448303222656, -141.85464477539062, 9.849681854248047, -0.7601715326309204, -1.5910987854003906, 3.8065571784973145, -2.0535316467285156, 5.472532272338867, 
303, 300784707, -164.85565185546875, -79.1790771484375, -142.05490112304688, 9.838603973388672, -0.7707214951515198, -1.607696294784546, 3.8378961086273193, -2.1664774417877197, 5.992514133453369, 
304, 300793040, -164.67352294921875, -79.16682434082031, -142.24453735351562, 9.841212272644043, -0.7692446112632751, -1.582398772239685, 3.90863037109375, -2.1314504146575928, 6.690388202667236, 
305, 300801373, -164.39755249023438, -79.1386947631836, -142.4990692138672, 9.831705093383789, -0.771129310131073, -1.5747243165969849, 4.032346725463867, -2.117234468460083, 7.292936325073242, 
306, 300809706, -164.16290283203125, -79.12356567382812, -142.7393341064453, 9.846087455749512, -0.7729418873786926, -1.566663384437561, 4.151696681976318, -2.115351915359497, 7.856950283050537, 
307, 300818039, -163.84417724609375, -79.09288024902344, -143.03668212890625, 9.857009887695312, -0.7535616755485535, -1.5761728286743164, 4.130296230316162, -2.0819509029388428, 8.353622436523438, 
308, 300826372, -163.56005859375, -79.07544708251953, -143.32748413085938, 9.856868743896484, -0.7719414234161377, -1.5484250783920288, 4.187390327453613, -2.04133939743042, 9.00058650970459, 
309, 300834705, -163.19508361816406, -79.04196166992188, -143.67054748535156, 9.858407974243164, -0.7640909552574158, -1.5504440069198608, 4.323914051055908, -2.011960029602051, 9.491560935974121, 
310, 300843038, -162.86773681640625, -79.0218734741211, -144.0043182373047, 9.858670234680176, -0.7696391940116882, -1.5635507106781006, 4.357442378997803, -1.9838354587554932, 9.997032165527344, 
311, 300851371, -162.46405029296875, -78.98529815673828, -144.38626098632812, 9.853462219238281, -0.7626301646232605, -1.5892953872680664, 4.392123699188232, -1.9940812587738037, 10.516743659973145, 
312, 300859704, -162.09600830078125, -78.96192932128906, -144.7599334716797, 9.864383697509766, -0.7555769085884094, -1.5531351566314697, 4.542582988739014, -1.988394856452942, 10.9794921875, 
313, 300868037, -161.65635681152344, -78.92241668701172, -145.1770477294922, 9.867648124694824, -0.7433351278305054, -1.530295968055725, 4.58830451965332, -1.9353221654891968, 11.466496467590332, 
314, 300876370, -161.2516632080078, -78.8978271484375, -145.5860137939453, 9.868210792541504, -0.7569094896316528, -1.5294127464294434, 4.680541038513184, -1.7400391101837158, 11.820228576660156, 
315, 300884703, -160.78611755371094, -78.85581970214844, -146.02932739257812, 9.880976676940918, -0.7638443112373352, -1.5488646030426025, 4.633692264556885, -1.845467448234558, 12.21284294128418, 
316, 300893036, -160.3461456298828, -78.8280029296875, -146.47422790527344, 9.844597816467285, -0.7508230805397034, -1.5495916604995728, 4.833151340484619, -1.6982625722885132, 12.719903945922852, 
317, 300901369, -159.8509521484375, -78.78262329101562, -146.94668579101562, 9.853957176208496, -0.7383007407188416, -1.5551159381866455, 4.772265911102295, -1.8036653995513916, 13.080244064331055, 
318, 300909702, -159.38729858398438, -78.75125885009766, -147.4154052734375, 9.864651679992676, -0.7311186194419861, -1.5303949117660522, 4.827310562133789, -1.718215823173523, 13.423269271850586, 
319, 300918035, -158.8719940185547, -78.703857421875, -147.907470703125, 9.878922462463379, -0.7352705001831055, -1.5282652378082275, 4.914783000946045, -1.6314091682434082, 13.686301231384277, 
320, 300926368, -158.3856658935547, -78.67008209228516, -148.39903259277344, 9.880001068115234, -0.7235002517700195, -1.5202497243881226, 4.900158405303955, -1.601901888847351, 14.061885833740234, 
321, 300934701, -157.8476104736328, -78.61994171142578, -148.91465759277344, 9.882734298706055, -0.723717451095581, -1.5012925863265991, 4.890296459197998, -1.4826161861419678, 14.429116249084473, 
322, 300943034, -157.34417724609375, -78.58447265625, -149.42462158203125, 9.874578475952148, -0.7076244354248047, -1.5377143621444702, 4.895444869995117, -1.405030608177185, 14.573528289794922, 
323, 300951367, -156.79397583007812, -78.53239440917969, -149.95123291015625, 9.886963844299316, -0.6976999044418335, -1.5282034873962402, 5.084836483001709, -1.3201451301574707, 14.863277435302734, 
324, 300959700, -156.27642822265625, -78.49485778808594, -150.47323608398438, 9.869178771972656, -0.7032637000083923, -1.5106226205825806, 5.045313358306885, -1.267789602279663, 15.020907402038574, 
325, 300968033, -155.71981811523438, -78.44184875488281, -151.0081024169922, 9.868526458740234, -0.6906399726867676, -1.511543869972229, 4.9213409423828125, -1.031677484512329, 15.1902437210083, 
326, 300976366, -155.1936492919922, -78.40357971191406, -151.53909301757812, 9.868836402893066, -0.7012765407562256, -1.5275088548660278, 5.1131911277771, -1.0099822282791138, 15.305301666259766, 
327, 300984699, -154.63052368164062, -78.34952545166016, -152.07858276367188, 9.863180160522461, -0.7029951810836792, -1.4997060298919678, 5.183860778808594, -0.8030192255973816, 15.452712059020996, 
328, 300993032, -154.09881591796875, -78.31006622314453, -152.615478515625, 9.849732398986816, -0.7084214091300964, -1.474422812461853, 5.117520809173584, -0.8107547760009766, 15.558269500732422, 
329, 301001365, -153.53550720214844, -78.25440979003906, -153.15675354003906, 9.867687225341797, -0.6749199628829956, -1.4812589883804321, 5.026692867279053, -0.6368597149848938, 15.67699146270752, 
330, 301009698, -153.0037078857422, -78.21387481689453, -153.69435119628906, 9.854421615600586, -0.6815548539161682, -1.4871646165847778, 5.159579277038574, -0.6481043100357056, 15.681192398071289, 
331, 301018031, -152.44467163085938, -78.15746307373047, -154.23062133789062, 9.860066413879395, -0.6868963837623596, -1.5204660892486572, 5.136808395385742, -0.4448041319847107, 15.706525802612305, 
332, 301026364, -151.91607666015625, -78.11620330810547, -154.7655792236328, 9.849410057067871, -0.6981685161590576, -1.5052114725112915, 5.137397289276123, -0.48286691308021545, 15.733521461486816, 
333, 301034697, -151.36924743652344, -78.05941772460938, -155.2896270751953, 9.859901428222656, -0.6801681518554688, -1.5292712450027466, 5.13360595703125, -0.3108416199684143, 15.559701919555664, 
334, 301043030, -150.8511962890625, -78.01820373535156, -155.8142852783203, 9.855162620544434, -0.6766072511672974, -1.5369019508361816, 5.153047561645508, -0.31855154037475586, 15.565568923950195, 
335, 301051363, -150.31130981445312, -77.95977020263672, -156.33163452148438, 9.849465370178223, -0.6753047108650208, -1.558933973312378, 5.126792907714844, -0.237892284989357, 15.597256660461426, 
336, 301059696, -149.81015014648438, -77.91907501220703, -156.83937072753906, 9.845114707946777, -0.6361368298530579, -1.5664660930633545, 5.048669338226318, -0.20328739285469055, 15.2635498046875, 
337, 301068029, -149.2918701171875, -77.86131286621094, -157.33587646484375, 9.82597541809082, -0.6363480687141418, -1.5647757053375244, 5.014448642730713, -0.11596847325563431, 15.186171531677246, 
338, 301076362, -148.8094482421875, -77.82140350341797, -157.8262939453125, 9.843756675720215, -0.6492229104042053, -1.5711479187011719, 4.992855548858643, -0.09291564673185349, 14.891069412231445, 
339, 301084695, -148.32000732421875, -77.76344299316406, -158.2947235107422, 9.837594985961914, -0.6374471783638, -1.5610536336898804, 4.877848148345947, -0.22475215792655945, 14.675627708435059, 
340, 301093028, -147.8612060546875, -77.7227783203125, -158.75985717773438, 9.817546844482422, -0.6310216784477234, -1.5585172176361084, 5.010632038116455, -0.24598635733127594, 14.492741584777832, 
341, 301101361, -147.3959197998047, -77.66649627685547, -159.20361328125, 9.8314847946167, -0.6389960646629333, -1.5448976755142212, 4.901157379150391, -0.12447240948677063, 14.111552238464355, 
342, 301109694, -146.9606475830078, -77.62847137451172, -159.6479949951172, 9.80611801147461, -0.637800931930542, -1.5612257719039917, 4.837479114532471, -0.05790098011493683, 13.91793155670166, 
343, 301118027, -146.51837158203125, -77.5740966796875, -160.0697784423828, 9.818622589111328, -0.6170470714569092, -1.5387588739395142, 4.7405805587768555, -0.001062990864738822, 13.581052780151367, 
344, 301126360, -146.11346435546875, -77.53836059570312, -160.4827880859375, 9.820901870727539, -0.6258497834205627, -1.5683553218841553, 4.839836597442627, -0.06755755841732025, 13.1719970703125, 
345, 301134693, -145.70164489746094, -77.48478698730469, -160.8732452392578, 9.789068222045898, -0.6209695339202881, -1.5437071323394775, 4.782742023468018, -0.15349331498146057, 12.913007736206055, 
346, 301143026, -145.32943725585938, -77.45154571533203, -161.2553253173828, 9.806694030761719, -0.6342254877090454, -1.551411747932434, 4.626494407653809, -0.10892454534769058, 12.402413368225098, 
347, 301151359, -144.95004272460938, -77.40137481689453, -161.61448669433594, 9.80240535736084, -0.612770140171051, -1.5704466104507446, 4.581209182739258, -0.0918910801410675, 12.06192398071289, 
348, 301159692, -144.60858154296875, -77.37074279785156, -161.96595764160156, 9.792876243591309, -0.5976210832595825, -1.5693846940994263, 4.535999774932861, -0.15623405575752258, 11.635754585266113, 
349, 301168025, -144.2618408203125, -77.32342529296875, -162.2930145263672, 9.79417610168457, -0.6207136511802673, -1.579582929611206, 4.457236289978027, -0.12918542325496674, 11.212889671325684, 
350, 301176358, -143.95208740234375, -77.29663848876953, -162.61422729492188, 9.786626815795898, -0.6241984963417053, -1.5624237060546875, 4.26956033706665, -0.12890364229679108, 10.79745101928711, 
351, 301184691, -143.64141845703125, -77.25166320800781, -162.90582275390625, 9.79687786102295, -0.6080271005630493, -1.5741078853607178, 4.2928948402404785, -0.3296424150466919, 10.337496757507324, 
352, 301193024, -143.3710174560547, -77.22834777832031, -163.18621826171875, 9.774980545043945, -0.6172819137573242, -1.5661113262176514, 4.278756141662598, -0.3139409124851227, 9.7548246383667, 
353, 301201357, -143.09866333007812, -77.18744659423828, -163.43980407714844, 9.787925720214844, -0.6206985116004944, -1.5784693956375122, 4.163081645965576, -0.4270789921283722, 9.265565872192383, 
354, 301209690, -142.86337280273438, -77.16905975341797, -163.6875762939453, 9.772056579589844, -0.608540415763855, -1.5817744731903076, 4.0502519607543945, -0.3153497278690338, 8.74547004699707, 
355, 301218023, -142.62478637695312, -77.1337661743164, -163.90806579589844, 9.75704288482666, -0.6113730669021606, -1.5973937511444092, 4.012137413024902, -0.33847931027412415, 8.176551818847656, 
356, 301226356, -142.42413330078125, -77.12022399902344, -164.12017822265625, 9.76705551147461, -0.6171722412109375, -1.586379885673523, 3.9534804821014404, -0.3524390757083893, 7.718029975891113, 
357, 301234689, -142.22718811035156, -77.08888244628906, -164.2997589111328, 9.751153945922852, -0.6044005751609802, -1.5895365476608276, 3.80831241607666, -0.5753470659255981, 7.042622089385986, 
358, 301243022, -142.07040405273438, -77.07982635498047, -164.4693603515625, 9.771623611450195, -0.6164534091949463, -1.5710043907165527, 3.7471835613250732, -0.5971062779426575, 6.531912803649902, 
359, 301251355, -141.90921020507812, -77.05304718017578, -164.613037109375, 9.754956245422363, -0.5924157500267029, -1.5835105180740356, 3.7291765213012695, -0.7013818621635437, 5.96248197555542, 
360, 301259688, -141.79295349121094, -77.04883575439453, -164.7431182861328, 9.75318717956543, -0.5997052192687988, -1.5751591920852661, 3.569676637649536, -0.7714879512786865, 5.384829044342041, 
361, 301268021, -141.66990661621094, -77.02781677246094, -164.84959411621094, 9.766273498535156, -0.5854474902153015, -1.5900206565856934, 3.5101239681243896, -0.7619339227676392, 4.763863563537598, 
362, 301276354, -141.5962371826172, -77.03047943115234, -164.93714904785156, 9.749823570251465, -0.5980557799339294, -1.5607084035873413, 3.381258010864258, -0.8201805949211121, 4.047074317932129, 
363, 301284687, -141.5130615234375, -77.01425170898438, -165.004638671875, 9.756622314453125, -0.587544322013855, -1.609763503074646, 3.303339719772339, -0.9508643746376038, 3.584199905395508, 
364, 301293020, -141.47894287109375, -77.02259826660156, -165.05381774902344, 9.736455917358398, -0.5790444612503052, -1.6022558212280273, 3.175140619277954, -0.9272993803024292, 2.861776113510132, 
365, 301301353, -141.43392944335938, -77.01300811767578, -165.0823974609375, 9.748577117919922, -0.5833383798599243, -1.6119362115859985, 3.2800819873809814, -0.9833688139915466, 2.2771565914154053, 
366, 301309686, -141.44090270996094, -77.02655029296875, -165.09088134765625, 9.76372241973877, -0.6034502983093262, -1.6207399368286133, 3.076679229736328, -1.131393551826477, 1.6648483276367188, 
367, 301318019, -141.43905639648438, -77.02198791503906, -165.0782012939453, 9.745505332946777, -0.6050252914428711, -1.5781599283218384, 2.935621738433838, -1.2096706628799438, 1.0359677076339722, 
368, 301326352, -141.4884796142578, -77.041259765625, -165.04673767089844, 9.765299797058105, -0.5965000987052917, -1.5794894695281982, 2.828221321105957, -1.28728187084198, 0.42575979232788086, 
369, 301334685, -141.5237274169922, -77.04180145263672, -164.99728393554688, 9.764347076416016, -0.6052199006080627, -1.6039469242095947, 2.800045967102051, -1.3500878810882568, -0.11755653470754623, 
370, 301343018, -141.61500549316406, -77.06719970703125, -164.92433166503906, 9.766036033630371, -0.5972470045089722, -1.5922571420669556, 2.6985111236572266, -1.401418924331665, -0.850866436958313, 
371, 301351351, -141.69277954101562, -77.0744400024414, -164.8329315185547, 9.756025314331055, -0.6079915761947632, -1.6041252613067627, 2.615521192550659, -1.4228324890136719, -1.4917091131210327, 
372, 301359684, -141.8291778564453, -77.10580444335938, -164.7159881591797, 9.760737419128418, -0.5987295508384705, -1.5720981359481812, 2.5310192108154297, -1.5555140972137451, -2.1753530502319336, 
373, 301368017, -141.9479217529297, -77.11771392822266, -164.58343505859375, 9.757612228393555, -0.5911657214164734, -1.573026418685913, 2.5273821353912354, -1.6517977714538574, -2.6982674598693848, 
374, 301376350, -142.12416076660156, -77.15414428710938, -164.42576599121094, 9.76708984375, -0.5980898141860962, -1.6059008836746216, 2.4185731410980225, -1.694983720779419, -3.3213083744049072, 
375, 301384683, -142.28359985351562, -77.17042541503906, -164.25436401367188, 9.774450302124023, -0.6007370948791504, -1.5888078212738037, 2.201569080352783, -1.848489761352539, -3.8266258239746094, 
376, 301393016, -142.4996337890625, -77.2125244140625, -164.05882263183594, 9.760737419128418, -0.6004512906074524, -1.5891406536102295, 2.1535165309906006, -1.7254900932312012, -4.476663589477539, 
377, 301401349, -142.69741821289062, -77.2352523803711, -163.84896850585938, 9.765098571777344, -0.6047508120536804, -1.5843441486358643, 2.1158640384674072, -1.813321590423584, -5.093095779418945, 
378, 301409682, -142.95614624023438, -77.28221893310547, -163.61122131347656, 9.762290954589844, -0.6033152937889099, -1.5892404317855835, 2.010922431945801, -1.8563534021377563, -5.6500773429870605, 
379, 301418015, -143.1922607421875, -77.30828857421875, -163.36341857910156, 9.784723281860352, -0.6180421113967896, -1.5952728986740112, 1.9772651195526123, -2.033193826675415, -6.113131523132324, 
380, 301426348, -143.49441528320312, -77.35917663574219, -163.0828094482422, 9.777929306030273, -0.618981659412384, -1.5957436561584473, 1.9472453594207764, -2.0619075298309326, -6.776310443878174, 
381, 301434681, -143.76837158203125, -77.38937377929688, -162.7974853515625, 9.775349617004395, -0.6171281933784485, -1.5615026950836182, 1.8527289628982544, -2.1284279823303223, -7.179452896118164, 
382, 301443014, -144.1111602783203, -77.44306182861328, -162.4767608642578, 9.78372573852539, -0.6362427473068237, -1.5729422569274902, 1.7485556602478027, -2.253424882888794, -7.740301609039307, 
383, 301451347, -144.42617797851562, -77.47665405273438, -162.15061950683594, 9.788147926330566, -0.6116015315055847, -1.6012481451034546, 1.727424144744873, -2.3037571907043457, -8.24976921081543, 
384, 301459680, -144.80519104003906, -77.53345489501953, -161.7935028076172, 9.785904884338379, -0.6125829219818115, -1.5832597017288208, 1.6105976104736328, -2.331190347671509, -8.617487907409668, 
385, 301468013, -145.1580352783203, -77.56951141357422, -161.429931640625, 9.806337356567383, -0.6200507879257202, -1.6051948070526123, 1.5946913957595825, -2.47255539894104, -9.176443099975586, 
386, 301476346, -145.57447814941406, -77.6301498413086, -161.03631591796875, 9.788323402404785, -0.6189953684806824, -1.6066275835037231, 1.524226188659668, -2.2830607891082764, -9.58882999420166, 
387, 301484679, -145.96009826660156, -77.66999053955078, -160.64019775390625, 9.805959701538086, -0.6253728270530701, -1.5833834409713745, 1.508371353149414, -2.3887710571289062, -10.081546783447266, 
388, 301493012, -146.4163818359375, -77.73123168945312, -160.20738220214844, 9.818062782287598, -0.6290832161903381, -1.595742106437683, 1.4586795568466187, -2.566380023956299, -10.374828338623047, 
389, 301501345, -146.83331298828125, -77.77240753173828, -159.7811279296875, 9.798402786254883, -0.6275565028190613, -1.5633522272109985, 1.316571831703186, -2.4663565158843994, -10.766343116760254, 
390, 301509678, -147.32254028320312, -77.83599090576172, -159.31553649902344, 9.811644554138184, -0.6366241574287415, -1.6063796281814575, 1.2687500715255737, -2.490485191345215, -11.110111236572266, 
391, 301518011, -147.77239990234375, -77.87850952148438, -158.85574340820312, 9.813154220581055, -0.6343798637390137, -1.5925484895706177, 1.33030104637146, -2.5548794269561768, -11.508565902709961, 
392, 301526344, -148.2955780029297, -77.94353485107422, -158.35726928710938, 9.826391220092773, -0.6409537196159363, -1.5798689126968384, 1.2892156839370728, -2.5103871822357178, -11.835684776306152, 
393, 301534677, -148.77536010742188, -77.98735046386719, -157.86817932128906, 9.836587905883789, -0.6345817446708679, -1.5841373205184937, 1.2123732566833496, -2.540432929992676, -12.152944564819336, 
394, 301543010, -149.32920837402344, -78.05179595947266, -157.33792114257812, 9.832685470581055, -0.6591513156890869, -1.5722146034240723, 1.1709166765213013, -2.6102702617645264, -12.340659141540527, 
395, 301551343, -149.83209228515625, -78.09545135498047, -156.8260955810547, 9.841926574707031, -0.6462996602058411, -1.5756676197052002, 1.1394495964050293, -2.5518829822540283, -12.562056541442871, 
396, 301559676, -150.41395568847656, -78.15969848632812, -156.2701873779297, 9.82557487487793, -0.664108395576477, -1.571266531944275, 1.1659600734710693, -2.626573324203491, -12.827649116516113, 
397, 301568009, -150.9412384033203, -78.20281982421875, -155.73370361328125, 9.822907447814941, -0.6395373344421387, -1.581382393836975, 1.144956350326538, -2.593223810195923, -12.990989685058594, 
398, 301576342, -151.5453338623047, -78.26646423339844, -155.1551055908203, 9.834528923034668, -0.6494768857955933, -1.590016484260559, 1.0935230255126953, -2.5742948055267334, -13.150208473205566, 
399, 301584675, -152.0972900390625, -78.309326171875, -154.59446716308594, 9.857297897338867, -0.6504823565483093, -1.586225986480713, 1.0586879253387451, -2.566995143890381, -13.422796249389648, 
400, 301593008, -152.71987915039062, -78.3720932006836, -153.9957275390625, 9.85313606262207, -0.6750680208206177, -1.527065396308899, 1.1517441272735596, -2.469148635864258, -13.409887313842773, 
401, 301601341, -153.27557373046875, -78.41422271728516, -153.43075561523438, 9.873510360717773, -0.6910335421562195, -1.5069169998168945, 1.156841516494751, -2.3468663692474365, -13.399385452270508, 
402, 301609674, -153.911865234375, -78.47508239746094, -152.818359375, 9.853816032409668, -0.6860948801040649, -1.5170621871948242, 1.171441674232483, -2.4256813526153564, -13.503968238830566, 
403, 301618007, -154.4786834716797, -78.5163345336914, -152.2421112060547, 9.849955558776855, -0.6968345046043396, -1.5124571323394775, 1.1786904335021973, -2.2144665718078613, -13.511883735656738, 
404, 301626340, -155.12452697753906, -78.57501983642578, -151.6230926513672, 9.877815246582031, -0.6856706142425537, -1.512677550315857, 1.017141342163086, -2.3282699584960938, -13.472922325134277, 
405, 301634673, -155.6981201171875, -78.61361694335938, -151.0408172607422, 9.868188858032227, -0.6995753645896912, -1.536824107170105, 1.1151416301727295, -2.209394931793213, -13.431018829345703, 
406, 301643006, -156.34446716308594, -78.67032623291016, -150.4195556640625, 9.877573013305664, -0.6928720474243164, -1.5308055877685547, 1.0504143238067627, -2.1459739208221436, -13.295391082763672, 
407, 301651339, -156.91688537597656, -78.7082290649414, -149.8377227783203, 9.858648300170898, -0.6898848414421082, -1.5570029020309448, 1.229970097541809, -1.9336315393447876, -13.306736946105957, 
408, 301659672, -157.55799865722656, -78.76295471191406, -149.22215270996094, 9.858176231384277, -0.699984610080719, -1.5354409217834473, 1.0803829431533813, -1.9186471700668335, -12.993398666381836, 
409, 301668005, -158.1263885498047, -78.79776000976562, -148.64468383789062, 9.8690185546875, -0.6963661313056946, -1.5323898792266846, 1.2377055883407593, -1.8953126668930054, -12.994346618652344, 
410, 301676338, -158.7660369873047, -78.8500747680664, -148.0289764404297, 9.88912582397461, -0.712186872959137, -1.5282682180404663, 1.2277417182922363, -1.801897644996643, -12.79276180267334, 
411, 301684671, -159.32046508789062, -78.8818359375, -147.4654083251953, 9.895345687866211, -0.7037532925605774, -1.5200287103652954, 1.3068640232086182, -1.7946745157241821, -12.484162330627441, 
412, 301693004, -159.947021484375, -78.93192291259766, -146.8623809814453, 9.870644569396973, -0.708511233329773, -1.5701764822006226, 1.2372188568115234, -1.5860719680786133, -12.331014633178711, 
413, 301701337, -160.4860076904297, -78.963623046875, -146.3143768310547, 9.867279052734375, -0.7114486694335938, -1.5530153512954712, 1.3528672456741333, -1.3770086765289307, -12.071183204650879, 
414, 301709670, -161.09234619140625, -79.01102447509766, -145.73178100585938, 9.868020057678223, -0.7172235250473022, -1.5543280839920044, 1.3893674612045288, -1.3847185373306274, -11.734868049621582, 
415, 301718003, -161.61090087890625, -79.03881072998047, -145.20449829101562, 9.858858108520508, -0.7288480401039124, -1.5312989950180054, 1.4031223058700562, -1.3831560611724854, -11.398630142211914, 
416, 301726336, -162.19558715820312, -79.0828857421875, -144.64236450195312, 9.873236656188965, -0.7303552031517029, -1.5290542840957642, 1.4771218299865723, -1.2986546754837036, -11.084240913391113, 
417, 301734669, -162.69569396972656, -79.10738372802734, -144.1335906982422, 9.878373146057129, -0.7343593239784241, -1.5517915487289429, 1.4554522037506104, -1.3760095834732056, -10.813370704650879, 
418, 301743002, -163.25828552246094, -79.14801788330078, -143.5937042236328, 9.893896102905273, -0.7425776720046997, -1.552199125289917, 1.6600332260131836, -1.2744747400283813, -10.459485054016113, 
419, 301751335, -163.72357177734375, -79.17012786865234, -143.1186065673828, 9.86233139038086, -0.7425668835639954, -1.5520893335342407, 1.6895662546157837, -1.2049832344055176, -9.945816040039062, 
420, 301759668, -164.24745178222656, -79.2070541381836, -142.61709594726562, 9.848320007324219, -0.7430890202522278, -1.564631700515747, 1.7875661849975586, -1.195019245147705, -9.47689437866211, 
421, 301768001, -164.6811065673828, -79.2271499633789, -142.1736297607422, 9.84717845916748, -0.7422093749046326, -1.5523440837860107, 1.7747336626052856, -1.0568050146102905, -9.14153003692627, 
422, 301776334, -165.16986083984375, -79.26166534423828, -141.7064971923828, 9.845787048339844, -0.7694805264472961, -1.5926507711410522, 1.9020363092422485, -1.0594944953918457, -8.624710083007812, 
423, 301784667, -165.56167602539062, -79.27760314941406, -141.30499267578125, 9.86174488067627, -0.7730672955513, -1.5418552160263062, 1.8717859983444214, -1.1297285556793213, -8.065704345703125, 
424, 301793000, -166.01023864746094, -79.30818939208984, -140.87673950195312, 9.84343147277832, -0.7668070197105408, -1.5725891590118408, 1.9508060216903687, -1.1019885540008545, -7.630878448486328, 
425, 301801333, -166.3594512939453, -79.32211303710938, -140.51766967773438, 9.869078636169434, -0.7504855990409851, -1.5640684366226196, 1.9846932888031006, -1.0105968713760376, -7.050536155700684, 
426, 301809666, -166.7633056640625, -79.35131072998047, -140.1360626220703, 9.880666732788086, -0.7721734046936035, -1.5582165718078613, 2.0351791381835938, -0.8775821924209595, -6.631539344787598, 
427, 301817999, -167.0648956298828, -79.36288452148438, -139.82345581054688, 9.860074996948242, -0.7908726930618286, -1.569085955619812, 2.2486352920532227, -0.9396070241928101, -5.958972930908203, 
428, 301826332, -167.4171905517578, -79.38915252685547, -139.4921112060547, 9.84980297088623, -0.7787856459617615, -1.5700771808624268, 2.2141458988189697, -0.8578208088874817, -5.470791339874268, 
429, 301834665, -167.66746520996094, -79.39839172363281, -139.230712890625, 9.844247817993164, -0.7772365212440491, -1.571419358253479, 2.368561267852783, -0.8962677717208862, -4.766963005065918, 
430, 301842998, -167.96322631835938, -79.42117309570312, -138.9539031982422, 9.849651336669922, -0.7758578062057495, -1.5738468170166016, 2.5206968784332275, -0.9096255898475647, -4.230434417724609, 
431, 301851331, -168.16722106933594, -79.42813110351562, -138.73875427246094, 9.880036354064941, -0.7760015726089478, -1.5857141017913818, 2.4871678352355957, -0.8988675475120544, -3.6958141326904297, 
432, 301859664, -168.4102325439453, -79.4491195678711, -138.5149383544922, 9.868209838867188, -0.764649510383606, -1.5814311504364014, 2.6543004512786865, -0.8316813707351685, -3.093571901321411, 
433, 301867997, -168.55682373046875, -79.45413970947266, -138.35574340820312, 9.850068092346191, -0.7766790390014648, -1.5909202098846436, 2.778017520904541, -0.8541962504386902, -2.429753303527832, 
434, 301876330, -168.74057006835938, -79.47269439697266, -138.1912384033203, 9.85753345489502, -0.7796313166618347, -1.5595258474349976, 2.666646957397461, -0.8311947584152222, -1.7828149795532227, 
435, 301884663, -168.83441162109375, -79.47604370117188, -138.08554077148438, 9.850467681884766, -0.7893970012664795, -1.5444631576538086, 2.8208703994750977, -0.7901352047920227, -1.2369498014450073, 
436, 301892996, -168.9597930908203, -79.4927749633789, -137.9798583984375, 9.865583419799805, -0.783448338508606, -1.570114254951477, 2.8883893489837646, -0.7795308232307434, -0.5610157251358032, 
437, 301901329, -168.99082946777344, -79.49365997314453, -137.93585205078125, 9.8457670211792, -0.7613525390625, -1.5849701166152954, 3.0858240127563477, -0.8284540176391602, 0.1521485447883606, 
438, 301909662, -169.0523681640625, -79.50836944580078, -137.8932342529297, 9.844900131225586, -0.7813734412193298, -1.5763295888900757, 3.0748867988586426, -0.7435940504074097, 0.7841286063194275, 
439, 301917995, -169.0274658203125, -79.50878143310547, -137.90591430664062, 9.839595794677734, -0.7636436820030212, -1.5636204481124878, 3.1158440113067627, -0.6502814292907715, 1.3835530281066895, 
440, 301926328, -169.03134155273438, -79.5207290649414, -137.91978454589844, 9.836992263793945, -0.7878690958023071, -1.575033187866211, 3.2317991256713867, -0.8316813111305237, 2.012612819671631, 
441, 301934661, -168.94883728027344, -79.51725769042969, -137.98883056640625, 9.834139823913574, -0.7650826573371887, -1.5846205949783325, 3.381514549255371, -0.8844467997550964, 2.6835525035858154, 
442, 301942994, -168.88894653320312, -79.52738189697266, -138.06492614746094, 9.837902069091797, -0.7612711191177368, -1.58578622341156, 3.4708826541900635, -0.7857295274734497, 3.331695079803467, 
443, 301951327, -168.7473907470703, -79.52233123779297, -138.19332885742188, 9.849752426147461, -0.7783397436141968, -1.5816642045974731, 3.479309558868408, -0.811907172203064, 3.9906725883483887, 
444, 301959660, -168.63185119628906, -79.53006744384766, -138.32608032226562, 9.83577823638916, -0.7642016410827637, -1.5837045907974243, 3.5506198406219482, -0.8239715099334717, 4.51381778717041, 
445, 301967993, -168.43850708007812, -79.52373504638672, -138.5059051513672, 9.841867446899414, -0.792049765586853, -1.571519136428833, 3.632072687149048, -0.7318627238273621, 5.123384952545166, 
446, 301976326, -168.2620849609375, -79.52882385253906, -138.69998168945312, 9.840578079223633, -0.7822278141975403, -1.5722702741622925, 3.7389607429504395, -0.8437712788581848, 5.793990612030029, 
447, 301984659, -168.00999450683594, -79.51834869384766, -138.9379119873047, 9.854813575744629, -0.7836820483207703, -1.5759910345077515, 3.8334262371063232, -0.9415920376777649, 6.468644618988037, 
448, 301992992, -167.77395629882812, -79.521484375, -139.1895751953125, 9.844833374023438, -0.7768362760543823, -1.5665178298950195, 3.8781237602233887, -0.7902121543884277, 7.045580863952637, 
449, 302001325, -167.46774291992188, -79.51016235351562, -139.4810028076172, 9.850292205810547, -0.7709046602249146, -1.546796441078186, 4.0307841300964355, -0.7351924777030945, 7.634757995605469, 
450, 302009658, -167.17596435546875, -79.51063537597656, -139.788818359375, 9.851634979248047, -0.7712230682373047, -1.578282117843628, 4.046332359313965, -0.7856015563011169, 8.227010726928711, 
451, 302017991, -166.82208251953125, -79.49590301513672, -140.1284637451172, 9.851340293884277, -0.7794168591499329, -1.5725969076156616, 4.076428413391113, -0.8323729634284973, 8.7622709274292, 
452, 302026324, -166.4847869873047, -79.4931869506836, -140.48146057128906, 9.849830627441406, -0.7682607173919678, -1.5540165901184082, 4.124174118041992, -0.8623674511909485, 9.22586441040039, 
453, 302034657, -166.08865356445312, -79.47544860839844, -140.862548828125, 9.862318992614746, -0.760286808013916, -1.5944510698318481, 4.260621070861816, -0.8751232028007507, 9.743603706359863, 
454, 302042990, -165.69940185546875, -79.47026824951172, -141.26734924316406, 9.861761093139648, -0.778383195400238, -1.5814876556396484, 4.39227819442749, -0.7728455662727356, 10.317337989807129, 
455, 302051323, -165.25970458984375, -79.45003509521484, -141.6916961669922, 9.837024688720703, -0.7485992312431335, -1.602770447731018, 4.394685745239258, -0.8096532225608826, 10.760515213012695, 
456, 302059656, -164.82861328125, -79.44116973876953, -142.13681030273438, 9.86751937866211, -0.7495160102844238, -1.5889726877212524, 4.451908111572266, -0.8341147303581238, 11.277871131896973, 
457, 302067989, -164.35350036621094, -79.41727447509766, -142.59622192382812, 9.869217872619629, -0.741959273815155, -1.5764849185943604, 4.532413482666016, -0.8704102635383606, 11.643746376037598, 
458, 302076322, -163.88487243652344, -79.40416717529297, -143.08035278320312, 9.851433753967285, -0.7347402572631836, -1.5792019367218018, 4.640314102172852, -0.9530034065246582, 12.16037368774414, 
459, 302084655, -163.37535095214844, -79.37673950195312, -143.57516479492188, 9.85965347290039, -0.7544021010398865, -1.5713692903518677, 4.499011993408203, -0.8704614043235779, 12.547619819641113, 
460, 302092988, -162.87721252441406, -79.36064910888672, -144.0888214111328, 9.856021881103516, -0.747489869594574, -1.583065390586853, 4.673214912414551, -0.9248403906822205, 12.873818397521973, 
461, 302101321, -162.3383026123047, -79.32963562011719, -144.6121826171875, 9.849420547485352, -0.7411726117134094, -1.5852185487747192, 4.680362224578857, -0.8792984485626221, 13.326730728149414, 
462, 302109654, -161.8114776611328, -79.31011962890625, -145.15341186523438, 9.85741901397705, -0.7321097254753113, -1.5686445236206055, 4.713967323303223, -0.8906710147857666, 13.596446990966797, 
463, 302117987, -161.25404357910156, -79.27547454833984, -145.69464111328125, 9.859804153442383, -0.7336081266403198, -1.5908681154251099, 4.797008514404297, -0.9414896965026855, 13.904688835144043, 
464, 302126320, -160.70318603515625, -79.25166320800781, -146.2588348388672, 9.83510971069336, -0.7221741080284119, -1.5983420610427856, 4.803309917449951, -0.9487130641937256, 14.262803077697754, 
465, 302134653, -160.12835693359375, -79.21310424804688, -146.818115234375, 9.858381271362305, -0.7047854661941528, -1.5648326873779297, 4.790938377380371, -0.9678468704223633, 14.500732421875, 
466, 302142986, -159.56756591796875, -79.18399047851562, -147.39547729492188, 9.857742309570312, -0.7129008769989014, -1.5708593130111694, 4.737686634063721, -1.214972972869873, 14.735282897949219, 
467, 302151319, -158.98123168945312, -79.14128875732422, -147.965576171875, 9.846094131469727, -0.7005138397216797, -1.555888295173645, 4.92272424697876, -1.062875747680664, 14.981335639953613, 
468, 302159652, -158.40444946289062, -79.10982513427734, -148.5571746826172, 9.855236053466797, -0.7046447992324829, -1.5619453191757202, 4.906996726989746, -1.0619791746139526, 15.18773365020752, 
469, 302167985, -157.81298828125, -79.06353759765625, -149.13311767578125, 9.850378036499023, -0.7021702527999878, -1.568190336227417, 4.874415397644043, -1.0978389978408813, 15.350971221923828, 
470, 302176318, -157.23402404785156, -79.02892303466797, -149.7269744873047, 9.84772777557373, -0.6882337331771851, -1.5885134935379028, 4.941473960876465, -1.0800116062164307, 15.41826057434082, 
471, 302184651, -156.64059448242188, -78.97941589355469, -150.3050994873047, 9.848384857177734, -0.6978211402893066, -1.5777450799942017, 4.880435466766357, -1.1078543663024902, 15.639876365661621, 
472, 302192984, -156.05918884277344, -78.94171905517578, -150.90200805664062, 9.840578079223633, -0.6941799521446228, -1.5784575939178467, 4.8795390129089355, -1.0875422954559326, 15.696611404418945, 
473, 302201317, -155.47509765625, -78.8907470703125, -151.4709014892578, 9.844573020935059, -0.6763476729393005, -1.5439019203186035, 4.878745079040527, -1.0209964513778687, 15.617668151855469, 
474, 302209650, -154.90452575683594, -78.8505630493164, -152.05718994140625, 9.842232704162598, -0.7009270787239075, -1.5502939224243164, 4.902284145355225, -1.1351335048675537, 15.651888847351074, 
475, 302217983, -154.33212280273438, -78.796142578125, -152.61546325683594, 9.85291576385498, -0.687117338180542, -1.5966664552688599, 4.757768630981445, -1.1654351949691772, 15.667642593383789, 
476, 302226316, -153.77301025390625, -78.75281524658203, -153.18893432617188, 9.830525398254395, -0.6633877158164978, -1.6080658435821533, 4.884020805358887, -1.264818549156189, 15.652836799621582, 
477, 302234649, -153.21408081054688, -78.6959228515625, -153.73220825195312, 9.830235481262207, -0.664845883846283, -1.6030999422073364, 4.9318437576293945, -1.2617703676223755, 15.59536075592041, 
478, 302242982, -152.67477416992188, -78.65066528320312, -154.2865447998047, 9.812700271606445, -0.6500509977340698, -1.6357570886611938, 4.874184608459473, -1.3589507341384888, 15.42635440826416, 
479, 302251315, -152.14219665527344, -78.591552734375, -154.80438232421875, 9.847249984741211, -0.6456273794174194, -1.6226385831832886, 4.786328315734863, -1.4612796306610107, 15.297309875488281, 
480, 302259648, -151.6266326904297, -78.54492950439453, -155.33743286132812, 9.820549011230469, -0.6507241725921631, -1.5935496091842651, 4.7754926681518555, -1.4574373960494995, 15.111581802368164, 
481, 302267981, -151.12112426757812, -78.4842300415039, -155.82891845703125, 9.819689750671387, -0.6634447574615479, -1.601339340209961, 4.688583850860596, -1.608100414276123, 14.935049057006836, 
482, 302276314, -150.6320037841797, -78.4361572265625, -156.33322143554688, 9.822908401489258, -0.6556409597396851, -1.593438744544983, 4.70533561706543, -1.6315118074417114, 14.74450397491455, 
483, 302284647, -150.14761352539062, -78.37486267089844, -156.80361938476562, 9.809651374816895, -0.6366198658943176, -1.5805896520614624, 4.653979301452637, -1.6392472982406616, 14.637948989868164, 
484, 302292980, -149.68081665039062, -78.32662963867188, -157.2871551513672, 9.806257247924805, -0.6527203321456909, -1.5911531448364258, 4.626418590545654, -1.644062876701355, 14.39594554901123, 
485, 302301313, -149.23223876953125, -78.26651000976562, -157.72183227539062, 9.821685791015625, -0.63295978307724, -1.5701892375946045, 4.591890335083008, -1.6869664192199707, 13.916804313659668, 
486, 302309646, -148.80038452148438, -78.21931457519531, -158.1728515625, 9.79986572265625, -0.6254519820213318, -1.5763601064682007, 4.582002639770508, -1.7292811870574951, 13.691347122192383, 
487, 302317979, -148.37855529785156, -78.15933227539062, -158.581298828125, 9.815635681152344, -0.6354546546936035, -1.5656260251998901, 4.49053430557251, -1.7672414779663086, 13.45262336730957, 
488, 302326312, -147.98062133789062, -78.11298370361328, -158.9988555908203, 9.804190635681152, -0.6400113105773926, -1.5569496154785156, 4.389666557312012, -1.8443152904510498, 13.03990364074707, 
489, 302334645, -147.59681701660156, -78.05476379394531, -159.37025451660156, 9.789379119873047, -0.6380712985992432, -1.5813875198364258, 4.30659818649292, -1.8732588291168213, 12.653868675231934, 
490, 302342978, -147.23983764648438, -78.01058959960938, -159.74754333496094, 9.797859191894531, -0.6266683340072632, -1.5633325576782227, 4.2227888107299805, -1.9644713401794434, 12.144146919250488, 
491, 302351311, -146.8897247314453, -77.9564437866211, -160.08544921875, 9.801898956298828, -0.6198101043701172, -1.5699342489242554, 4.214131832122803, -1.7301781177520752, 11.762162208557129, 
492, 302359644, -146.56240844726562, -77.91631317138672, -160.43197631835938, 9.808646202087402, -0.6110798120498657, -1.5694628953933716, 4.141770839691162, -1.8068666458129883, 11.34290599822998, 
493, 302367977, -146.2491912841797, -77.86469268798828, -160.73341369628906, 9.791488647460938, -0.6345599293708801, -1.5684638023376465, 4.095025062561035, -1.8297146558761597, 10.89122486114502, 
494, 302376310, -145.95631408691406, -77.82740020751953, -161.0479736328125, 9.787561416625977, -0.5875280499458313, -1.5715423822402954, 4.020359516143799, -1.8727977275848389, 10.517768859863281, 
495, 302384643, -145.67709350585938, -77.7803955078125, -161.31553649902344, 9.783341407775879, -0.6111764907836914, -1.5697022676467896, 4.007655143737793, -1.731048583984375, 9.92408275604248, 
496, 302392976, -145.4193115234375, -77.74833679199219, -161.5947265625, 9.7793550491333, -0.5959551930427551, -1.5764000415802002, 3.948460578918457, -1.7503362894058228, 9.495583534240723, 
497, 302401309, -145.1815185546875, -77.70502471923828, -161.82106018066406, 9.778374671936035, -0.5992963314056396, -1.5508564710617065, 3.8910584449768066, -1.861655354499817, 8.848898887634277, 
498, 302409642, -144.9680633544922, -77.67691802978516, -162.05593872070312, 9.769817352294922, -0.5793523788452148, -1.554351806640625, 3.7780747413635254, -1.915932297706604, 8.368888854980469, 
499, 302417975, -144.76614379882812, -77.63749694824219, -162.2474365234375, 9.787918090820312, -0.5849565863609314, -1.5642800331115723, 3.683429718017578, -1.9225149154663086, 7.8839592933654785, 
500, 302426308, -144.5911407470703, -77.61477661132812, -162.44546508789062, 9.784024238586426, -0.5991925001144409, -1.5486723184585571, 3.5983901023864746, -1.8899846076965332, 7.259586334228516, 
501, 302434641, -144.42889404296875, -77.58082580566406, -162.59698486328125, 9.782662391662598, -0.591036319732666, -1.5744056701660156, 3.6203930377960205, -1.937576174736023, 6.692487716674805, 
502, 302442974, -144.29075622558594, -77.56416320800781, -162.75827026367188, 9.794899940490723, -0.6040334105491638, -1.5434516668319702, 3.560763120651245, -1.8139618635177612, 6.100645065307617, 
503, 302451307, -144.16259765625, -77.53553771972656, -162.87600708007812, 9.771265983581543, -0.5978273749351501, -1.5371410846710205, 3.5046677589416504, -1.8953380584716797, 5.6291117668151855, 
504, 302459640, -144.0644073486328, -77.52377319335938, -162.99685668945312, 9.756030082702637, -0.5951570868492126, -1.5575096607208252, 3.384664535522461, -1.9210801124572754, 4.981482028961182, 
505, 302467973, -143.97950744628906, -77.50164794921875, -163.072265625, 9.773017883300781, -0.6099309325218201, -1.57747220993042, 3.285409927368164, -1.8906762599945068, 4.291331768035889, 
506, 302476306, -143.91822814941406, -77.49691009521484, -163.1562957763672, 9.770511627197266, -0.5861983299255371, -1.552496314048767, 3.2743446826934814, -1.7868107557296753, 3.752126932144165, 
507, 302484639, -143.86769104003906, -77.48131561279297, -163.19790649414062, 9.79554271697998, -0.5928378105163574, -1.5576132535934448, 3.1288046836853027, -1.7697772979736328, 3.1270885467529297, 
508, 302492972, -143.8506317138672, -77.4819564819336, -163.2401580810547, 9.762031555175781, -0.5971629619598389, -1.527462124824524, 3.030317783355713, -1.9193133115768433, 2.503048896789551, 
509, 302501305, -143.84481811523438, -77.47264099121094, -163.2379150390625, 9.765314102172852, -0.6110404133796692, -1.52836275100708, 2.9074716567993164, -1.8384490013122559, 1.764615774154663, 
510, 302509638, -143.86602783203125, -77.48072052001953, -163.24295043945312, 9.766632080078125, -0.605216383934021, -1.5268796682357788, 2.8246610164642334, -1.7777433395385742, 1.2322242259979248, 
511, 302517971, -143.89480590820312, -77.47805786132812, -163.2058563232422, 9.759980201721191, -0.603059709072113, -1.5692373514175415, 2.8550140857696533, -1.727283239364624, 0.5593380928039551, 
512, 302526304, -143.95291137695312, -77.49315643310547, -163.173095703125, 9.77401065826416, -0.5868210196495056, -1.547027826309204, 2.781834125518799, -1.6628122329711914, -0.01553503330796957, 
513, 302534637, -144.0198516845703, -77.49624633789062, -163.09877014160156, 9.768824577331543, -0.6046454310417175, -1.5690888166427612, 2.6428771018981934, -1.743317723274231, -0.6275359392166138, 
514, 302542970, -144.11996459960938, -77.51812744140625, -163.02642822265625, 9.763851165771484, -0.6001813411712646, -1.5449552536010742, 2.5584776401519775, -1.6282328367233276, -1.31092369556427, 
515, 302551303, -144.22630310058594, -77.52816772460938, -162.912353515625, 9.776257514953613, -0.6080806851387024, -1.5310208797454834, 2.588088035583496, -1.6605069637298584, -1.950639247894287, 
516, 302559636, -144.36691284179688, -77.55626678466797, -162.79751586914062, 9.776183128356934, -0.6246899962425232, -1.557186245918274, 2.5137555599212646, -1.6200106143951416, -2.5689923763275146, 
517, 302567969, -144.51197814941406, -77.57268524169922, -162.64501953125, 9.786191940307617, -0.6161158084869385, -1.5615986585617065, 2.450411558151245, -1.6014404296875, -3.195209503173828, 
518, 302576302, -144.68997192382812, -77.60652923583984, -162.49554443359375, 9.772104263305664, -0.6192528009414673, -1.5582834482192993, 2.3437538146972656, -1.5596635341644287, -3.700911045074463, 
519, 302584635, -144.8715362548828, -77.62837982177734, -162.30726623535156, 9.762690544128418, -0.6130701303482056, -1.540418028831482, 2.2784628868103027, -1.5739818811416626, -4.3097100257873535, 
520, 302592968, -145.08856201171875, -77.66812896728516, -162.1183319091797, 9.772704124450684, -0.6096887588500977, -1.5296807289123535, 2.1989564895629883, -1.493040919303894, -4.868023872375488, 
521, 302601301, -145.3063201904297, -77.69596099853516, -161.89413452148438, 9.772093772888184, -0.6290168166160583, -1.5517842769622803, 2.1622514724731445, -1.4534926414489746, -5.461531639099121, 
522, 302609634, -145.5652313232422, -77.7409439086914, -161.66448974609375, 9.765913963317871, -0.6147615313529968, -1.5544812679290771, 1.9317744970321655, -1.4939119815826416, -6.013723373413086, 
523, 302617967, -145.82398986816406, -77.77253723144531, -161.4002685546875, 9.787540435791016, -0.623454749584198, -1.5303632020950317, 1.9481420516967773, -1.5850474834442139, -6.525803089141846, 
524, 302626300, -146.12307739257812, -77.82234954833984, -161.1294708251953, 9.773507118225098, -0.5944902896881104, -1.567596435546875, 1.8651517629623413, -1.4839736223220825, -7.119490146636963, 
525, 302634633, -146.4158935546875, -77.859619140625, -160.83169555664062, 9.790735244750977, -0.6204198598861694, -1.5135732889175415, 1.8301631212234497, -1.382976770401001, -7.586130619049072, 
526, 302642966, -146.74627685546875, -77.91446685791016, -160.5311279296875, 9.795859336853027, -0.62210613489151, -1.5451380014419556, 1.788718819618225, -1.2709143161773682, -8.033865928649902, 
527, 302651299, -147.0709991455078, -77.95632934570312, -160.20156860351562, 9.814043998718262, -0.6153009533882141, -1.5478414297103882, 1.7513731718063354, -1.2367192506790161, -8.50373363494873, 
528, 302659632, -147.4395294189453, -78.0152816772461, -159.86163330078125, 9.806273460388184, -0.6491551995277405, -1.5315775871276855, 1.7018611431121826, -1.2052395343780518, -9.01563549041748, 
529, 302667965, -147.8028106689453, -78.06159973144531, -159.494384765625, 9.811965942382812, -0.6288619637489319, -1.5317074060440063, 1.5628013610839844, -1.134621024131775, -9.522796630859375, 
530, 302676298, -148.20664978027344, -78.124267578125, -159.12026977539062, 9.817768096923828, -0.6345005631446838, -1.5443438291549683, 1.6823945045471191, -1.1098265647888184, -9.898122787475586, 
531, 302684631, -148.5996551513672, -78.17304229736328, -158.7232208251953, 9.814886093139648, -0.6236732006072998, -1.559736728668213, 1.5341905355453491, -1.074709415435791, -10.239380836486816, 
532, 302692964, -149.03872680664062, -78.23751068115234, -158.31564331054688, 9.814711570739746, -0.6181448698043823, -1.5531387329101562, 1.5063221454620361, -1.1291654109954834, -10.623722076416016, 
533, 302701297, -149.46730041503906, -78.28838348388672, -157.8826141357422, 9.8114013671875, -0.6313057541847229, -1.547211766242981, 1.5147746801376343, -1.1037558317184448, -11.036418914794922, 
534, 302709630, -149.93675231933594, -78.35578155517578, -157.44371032714844, 9.803963661193848, -0.6380879878997803, -1.5363352298736572, 1.4464616775512695, -0.9333699941635132, -11.317279815673828, 
535, 302717963, -150.3951873779297, -78.41017150878906, -156.98143005371094, 9.815217018127441, -0.6308802962303162, -1.551729679107666, 1.4016624689102173, -0.8424139022827148, -11.76683521270752, 
536, 302726296, -150.89645385742188, -78.47943115234375, -156.5124969482422, 9.813801765441895, -0.6520680785179138, -1.5526882410049438, 1.4152250289916992, -0.8321297764778137, -11.9637451171875, 
537, 302734629, -151.38104248046875, -78.53398132324219, -156.02456665039062, 9.841063499450684, -0.6523905992507935, -1.562216877937317, 1.320336937904358, -0.8445653319358826, -12.207014083862305, 
538, 302742962, -151.91432189941406, -78.6037826538086, -155.5177764892578, 9.832167625427246, -0.6482321619987488, -1.5455386638641357, 1.3788657188415527, -0.8136234879493713, -12.52983283996582, 
539, 302751295, -152.4271697998047, -78.65821838378906, -155.001220703125, 9.832347869873047, -0.6385611891746521, -1.5635011196136475, 1.3228986263275146, -0.8823720216751099, -12.6816987991333, 
540, 302759628, -152.9884033203125, -78.72724151611328, -154.4744110107422, 9.845758438110352, -0.6449778079986572, -1.5714772939682007, 1.2819157838821411, -0.850507915019989, -12.908333778381348, 
541, 302767961, -153.52430725097656, -78.78169250488281, -153.9359893798828, 9.834997177124023, -0.636191725730896, -1.5630854368209839, 1.1763083934783936, -0.7819899320602417, -13.023469924926758, 
542, 302776294, -154.10934448242188, -78.84912109375, -153.3847198486328, 9.838993072509766, -0.6547680497169495, -1.5515064001083374, 1.2684426307678223, -0.8974587917327881, -13.173568725585938, 
543, 302784627, -154.67288208007812, -78.90234375, -152.818115234375, 9.842822074890137, -0.6592492461204529, -1.5452983379364014, 1.210195779800415, -0.8666704893112183, -13.41569995880127, 
544, 302792960, -155.27333068847656, -78.96920013427734, -152.24623107910156, 9.850650787353516, -0.6765804886817932, -1.5361943244934082, 1.3523293733596802, -0.7414425015449524, -13.328380584716797, 
545, 302801293, -155.84754943847656, -79.02136993408203, -151.66856384277344, 9.83979606628418, -0.6914275884628296, -1.5120235681533813, 1.266342282295227, -0.7381126284599304, -13.459550857543945, 
546, 302809626, -156.4647216796875, -79.08734130859375, -151.08609008789062, 9.851473808288574, -0.6933885216712952, -1.5297549962997437, 1.2459278106689453, -0.5875265598297119, -13.466774940490723, 
547, 302817959, -157.046875, -79.1380615234375, -150.49996948242188, 9.849835395812988, -0.6858440637588501, -1.523532509803772, 1.3486920595169067, -0.6181867718696594, -13.429096221923828, 
548, 302826292, -157.67408752441406, -79.20172882080078, -149.90472412109375, 9.852904319763184, -0.6912401914596558, -1.550642967224121, 1.2881144285202026, -0.5344282388687134, -13.42092514038086, 
549, 302834625, -158.26193237304688, -79.25059509277344, -149.313720703125, 9.850971221923828, -0.6882285475730896, -1.5411587953567505, 1.2788677215576172, -0.5070210695266724, -13.308760643005371, 
550, 302842958, -158.89625549316406, -79.3113021850586, -148.7094268798828, 9.850198745727539, -0.6844103932380676, -1.5415819883346558, 1.2669570446014404, -0.534838080406189, -13.280635833740234, 
551, 302851291, -159.4805908203125, -79.35743713378906, -148.12071228027344, 9.846292495727539, -0.69449782371521, -1.5362752676010132, 1.4569380283355713, -0.44088512659072876, -13.00792407989502, 
552, 302859624, -160.11305236816406, -79.41541290283203, -147.5174102783203, 9.832265853881836, -0.7033016085624695, -1.5661474466323853, 1.3990498781204224, -0.4409363269805908, -13.004284858703613, 
553, 302867957, -160.69993591308594, -79.45780944824219, -146.9268035888672, 9.85861873626709, -0.690155029296875, -1.5683649778366089, 1.4133937358856201, -0.5394231081008911, -12.764665603637695, 
554, 302876290, -161.32777404785156, -79.5127182006836, -146.328369140625, 9.84807014465332, -0.7055678367614746, -1.5704312324523926, 1.4543765783309937, -0.37786126136779785, -12.657379150390625, 
555, 302884623, -161.90805053710938, -79.55220794677734, -145.74440002441406, 9.863842964172363, -0.7170521020889282, -1.5746933221817017, 1.4524297714233398, -0.49393218755722046, -12.394845008850098, 
556, 302892956, -162.522216796875, -79.60359954833984, -145.15853881835938, 9.880155563354492, -0.7319281101226807, -1.5686880350112915, 1.594357967376709, -0.3417835235595703, -12.137394905090332, 
557, 302901289, -163.08859252929688, -79.63948822021484, -144.5879364013672, 9.861645698547363, -0.7108424305915833, -1.5452044010162354, 1.5560394525527954, -0.52582186460495, -11.86606502532959, 
558, 302909622, -163.68896484375, -79.6851577758789, -144.01699829101562, 9.884902000427246, -0.7226521372795105, -1.594356656074524, 1.528683066368103, -0.5647298097610474, -11.531054496765137, 
559, 302917955, -164.2317657470703, -79.71646118164062, -143.47027587890625, 9.84802532196045, -0.726940393447876, -1.577886700630188, 1.6122113466262817, -0.6056870222091675, -11.128398895263672, 
560, 302926288, -164.8076629638672, -79.75777435302734, -142.92312622070312, 9.857078552246094, -0.7264353632926941, -1.5947916507720947, 1.6065504550933838, -0.6347079873085022, -10.799154281616211, 
561, 302934621, -165.329345703125, -79.7857894897461, -142.3965301513672, 9.872428894042969, -0.7302890419960022, -1.5752220153808594, 1.7855430841445923, -0.630097508430481, -10.521471977233887, 
562, 302942954, -165.8779296875, -79.82413482666016, -141.8746337890625, 9.862818717956543, -0.7548737525939941, -1.5836358070373535, 1.8187904357910156, -0.558941125869751, -10.1077241897583, 
563, 302951287, -166.36488342285156, -79.84820556640625, -141.3817138671875, 9.854729652404785, -0.7486464381217957, -1.571902871131897, 1.9990373849868774, -0.6816332340240479, -9.638086318969727, 
564, 302959620, -166.87841796875, -79.88145446777344, -140.895263671875, 9.851700782775879, -0.7371564507484436, -1.594672679901123, 1.9679418802261353, -0.7549669146537781, -9.202567100524902, 
565, 302967953, -167.33050537109375, -79.90222930908203, -140.43771362304688, 9.863694190979004, -0.7569793462753296, -1.6189242601394653, 2.020630359649658, -0.7106541991233826, -8.761592864990234, 
566, 302976286, -167.8028564453125, -79.93151092529297, -139.99151611328125, 9.839320182800293, -0.7742552757263184, -1.5523241758346558, 2.054415225982666, -0.8147631287574768, -8.220939636230469, 
567, 302984619, -168.2163543701172, -79.94918823242188, -139.57313537597656, 9.852926254272461, -0.7700529098510742, -1.5890276432037354, 2.0344879627227783, -0.7464373111724854, -7.827647686004639, 
568, 302992952, -168.64642333984375, -79.97445678710938, -139.16943359375, 9.840898513793945, -0.7629802227020264, -1.604909062385559, 2.1068224906921387, -0.9267870783805847, -7.237571716308594, 
569, 303001285, -169.0093994140625, -79.98731994628906, -138.80029296875, 9.862446784973145, -0.7762360572814941, -1.6138620376586914, 2.2901175022125244, -0.980525553226471, -6.667731285095215, 
570, 303009618, -169.38954162597656, -80.00938415527344, -138.44638061523438, 9.854015350341797, -0.7516975998878479, -1.6086291074752808, 2.214042901992798, -0.9668988585472107, -6.143765926361084, 
571, 303017951, -169.70608520507812, -80.01944732666016, -138.12413024902344, 9.860330581665039, -0.7792066931724548, -1.5631375312805176, 2.3396811485290527, -1.0322153568267822, -5.622645378112793, 
572, 303026284, -170.03106689453125, -80.03766632080078, -137.82498168945312, 9.843609809875488, -0.7971009016036987, -1.605483889579773, 2.452409029006958, -1.1241189241409302, -4.968226432800293, 
573, 303034617, -170.29486083984375, -80.04454040527344, -137.5548858642578, 9.84889030456543, -0.7851422429084778, -1.5765454769134521, 2.51216721534729, -1.152755856513977, -4.470209121704102, 
574, 303042950, -170.5631561279297, -80.05987548828125, -137.31109619140625, 9.851351737976074, -0.7835081815719604, -1.590536117553711, 2.6598846912384033, -1.187002182006836, -3.7968626022338867, 
575, 303051283, -170.76153564453125, -80.06390380859375, -137.10475158691406, 9.822522163391113, -0.7791213393211365, -1.584912896156311, 2.843052387237549, -1.2281385660171509, -3.1028189659118652, 
576, 303059616, -170.96966552734375, -80.0763168334961, -136.92092895507812, 9.855792999267578, -0.7628471851348877, -1.6011788845062256, 2.7570390701293945, -1.2912774085998535, -2.5400991439819336, 
577, 303067949, -171.11793518066406, -80.07693481445312, -136.76666259765625, 9.845046997070312, -0.7794963717460632, -1.6192845106124878, 2.7077834606170654, -1.429722785949707, -1.9726165533065796, 
578, 303076282, -171.26742553710938, -80.08678436279297, -136.6413116455078, 9.848161697387695, -0.7845627665519714, -1.5967481136322021, 2.8509926795959473, -1.3734482526779175, -1.3358465433120728, 
579, 303084615, -171.3504638671875, -80.08570861816406, -136.5510711669922, 9.84011459350586, -0.7770566940307617, -1.5898362398147583, 2.9714560508728027, -1.4260084629058838, -0.6288679242134094, 
580, 303092948, -171.43502807617188, -80.09241485595703, -136.49020385742188, 9.859724044799805, -0.7866538763046265, -1.5856122970581055, 3.044405221939087, -1.5228047370910645, -0.009771830402314663, 
581, 303101281, -171.4594268798828, -80.08924102783203, -136.45750427246094, 9.842825889587402, -0.7778609395027161, -1.597612977027893, 3.2124862670898438, -1.4947316646575928, 0.5814432501792908, 
582, 303109614, -171.47938537597656, -80.0943832397461, -136.4611358642578, 9.832841873168945, -0.7742043137550354, -1.6092839241027832, 3.1740646362304688, -1.5071285963058472, 1.2860394716262817, 
583, 303117947, -171.43832397460938, -80.088134765625, -136.4940185546875, 9.840344429016113, -0.7688363790512085, -1.5916584730148315, 3.324369430541992, -1.6637599468231201, 1.9757028818130493, 
584, 303126280, -171.39776611328125, -80.08958435058594, -136.55796813964844, 9.855511665344238, -0.769945502281189, -1.5850450992584229, 3.3845627307891846, -1.7461864948272705, 2.5207738876342773, 
585, 303134613, -171.2987823486328, -80.08120727539062, -136.64881896972656, 9.831597328186035, -0.7655591368675232, -1.6095807552337646, 3.428926706314087, -1.740167260169983, 3.200652599334717, 
586, 303142946, -171.1959991455078, -80.08049774169922, -136.77476501464844, 9.847036361694336, -0.7715634107589722, -1.5735207796096802, 3.5709831714630127, -1.8057652711868286, 3.772618293762207, 
587, 303151279, -171.0377960205078, -80.06991577148438, -136.92430114746094, 9.836822509765625, -0.7809836268424988, -1.5948938131332397, 3.6085593700408936, -1.803485631942749, 4.445197105407715, 
588, 303159612, -170.8733673095703, -80.06832885742188, -137.1100311279297, 9.848377227783203, -0.7729160785675049, -1.5988423824310303, 3.724104881286621, -1.7015153169631958, 4.99605655670166, 
589, 303167945, -170.65728759765625, -80.05452728271484, -137.31686401367188, 9.837940216064453, -0.7653965950012207, -1.5796113014221191, 3.790240526199341, -1.9779952764511108, 5.68661642074585, 
590, 303176278, -170.4323272705078, -80.04846954345703, -137.56399536132812, 9.861556053161621, -0.7774308919906616, -1.591732382774353, 3.867058515548706, -1.9768431186676025, 6.274617671966553, 
591, 303184611, -170.1605682373047, -80.03262329101562, -137.826171875, 9.862814903259277, -0.7606633305549622, -1.5980734825134277, 3.9341416358947754, -1.996232509613037, 6.8791890144348145, 
592, 303192944, -169.88333129882812, -80.02350616455078, -138.12367248535156, 9.870675086975098, -0.7783410549163818, -1.6150503158569336, 4.000713348388672, -2.118668794631958, 7.370188236236572, 
593, 303201277, -169.55848693847656, -80.0038070678711, -138.43836975097656, 9.833209991455078, -0.7600423097610474, -1.5815602540969849, 4.111264705657959, -2.1947944164276123, 8.058290481567383, 
594, 303209610, -169.22703552246094, -79.99193572998047, -138.79209899902344, 9.85336971282959, -0.7671735882759094, -1.577020287513733, 4.014441967010498, -2.1491496562957764, 8.533408164978027, 
595, 303217943, -168.8573760986328, -79.97079467773438, -139.15185546875, 9.859273910522461, -0.7581567764282227, -1.5864965915679932, 4.180448532104492, -2.0989458560943604, 9.047332763671875, 
596, 303226276, -168.4754638671875, -79.95709228515625, -139.55535888671875, 9.838229179382324, -0.7693906426429749, -1.5837451219558716, 4.219945430755615, -2.0833210945129395, 9.579263687133789, 
597, 303234609, -168.05923461914062, -79.93244934082031, -139.96156311035156, 9.84376335144043, -0.7485457062721252, -1.572182536125183, 4.295302867889404, -2.203272819519043, 10.12633228302002, 
598, 303242942, -167.63121032714844, -79.91539001464844, -140.41001892089844, 9.858016014099121, -0.7487810850143433, -1.5619397163391113, 4.355828762054443, -2.145307779312134, 10.598402976989746, 
599, 303251275, -167.17510986328125, -79.8881607055664, -140.85533142089844, 9.842737197875977, -0.7419860363006592, -1.5808026790618896, 4.466609954833984, -2.1906955242156982, 11.048905372619629, 
600, 303259608, -166.7050018310547, -79.86713409423828, -141.34439086914062, 9.84505558013916, -0.7403700947761536, -1.583412766456604, 4.548730373382568, -2.2495830059051514, 11.559371948242188, 
601, 303267941, -166.21022033691406, -79.83625793457031, -141.8286895751953, 9.853251457214355, -0.7460805177688599, -1.5735617876052856, 4.523192882537842, -2.2446396350860596, 12.010336875915527, 
602, 303276274, -165.7023468017578, -79.81307983398438, -142.35565185546875, 9.884119033813477, -0.7405206561088562, -1.5946142673492432, 4.663993835449219, -2.133064031600952, 12.419548988342285, 
603, 303284607, -165.1820831298828, -79.77994537353516, -142.86436462402344, 9.868258476257324, -0.7344996333122253, -1.5813287496566772, 4.71784782409668, -2.1722664833068848, 12.653470993041992, 
604, 303292940, -164.64675903320312, -79.75263214111328, -143.41961669921875, 9.848215103149414, -0.7450514435768127, -1.551723837852478, 4.781845569610596, -2.243973731994629, 13.135519981384277, 
